SamplingTime, AccelerationX, AccelerationY, AccelerationZ, GyroX, GyroY, GyroZ, MagneticFieldX, MagneticFieldY, MagneticFieldZ
1715798084.110789, -0.124050, -2.015170, -9.926061, -0.204297, 0.016179, 0.115117, 17.677704, 141.629684, -236.626465
1715798084.144128, -0.325911, -1.994819, -10.207080, 0.187038, 0.025537, 0.214231, 17.940994, 141.088547, -236.548035
1715798084.176846, -0.387561, -1.785177, -9.838822, 0.314048, 0.083846, 0.224711, 17.798111, 141.234558, -236.642288
1715798084.209820, -0.511162, -1.885583, -9.783007, 0.131453, 0.106127, 0.148322, 17.896896, 141.413574, -236.673157
1715798084.244043, -0.542137, -2.181417, -9.898378, -0.113732, 0.109842, 0.224911, 18.059204, 141.149475, -236.722382
1715798084.277355, -0.539144, -1.968333, -10.273669, -0.034738, 0.238385, 0.291019, 18.092529, 141.418625, -236.978134
1715798084.310758, -0.153678, -2.142661, -10.392182, 0.117623, 0.241990, 0.356925, 18.231110, 141.431931, -236.893280
1715798084.343760, -0.366313, -2.955193, -10.420912, 0.103048, 0.276890, 0.420163, 18.020279, 141.377090, -236.729492
1715798084.377380, 0.034566, -3.185336, -10.676194, 0.171929, 0.094586, 0.443642, 18.080612, 141.598877, -236.964828
1715798084.410709, 0.380828, -3.278859, -10.280552, 0.008974, -0.094671, 0.623048, 18.143311, 141.417450, -237.028717
1715798084.444040, 0.553659, -2.868553, -8.949526, -0.386506, 0.073043, 1.051540, 18.762268, 141.187744, -236.957031
1715798084.477420, 0.550217, -1.576881, -8.223185, -0.611347, 0.860132, 1.340434, 19.320786, 140.833511, -236.462265
1715798084.510634, 0.855628, -1.070208, -8.473080, -0.746831, 1.045557, 1.486521, 19.537521, 140.258972, -236.321762
1715798084.544067, 0.975637, -1.477372, -7.524677, -1.106012, 1.224964, 1.335369, 19.787247, 139.802856, -235.634338
1715798084.577400, 0.975787, -0.520290, -10.791864, -1.401079, 0.729421, 1.081618, 20.126343, 138.932388, -234.577911
1715798084.610731, 0.107440, -1.321899, -13.285874, 0.001128, -0.178324, 1.125803, 20.071060, 137.995010, -234.217560
1715798084.644066, 0.235081, -1.185130, -12.558037, 1.104032, -0.193378, 0.851525, 20.554855, 138.222900, -234.354370
1715798084.677395, -0.566977, 0.004639, -10.701333, 0.981136, 0.306200, 0.229893, 20.785400, 139.092133, -234.924408
1715798084.710733, -0.687136, -0.040103, -9.833884, 0.090508, 0.248887, 0.110059, 21.092972, 139.144638, -235.414169
1715798084.744183, 2.468871, -2.252345, -11.944522, -0.535468, -0.929010, 0.678153, 21.163971, 139.309875, -235.123703
1715798084.777413, -1.040580, -0.128389, -10.387244, -0.514204, -1.287927, 0.231451, 22.160202, 138.486877, -235.158157
1715798084.810742, -1.897255, -0.503830, -12.573300, 0.634876, -0.588888, -0.354085, 22.398392, 138.309052, -235.436859
1715798084.844092, -0.119560, -1.412878, -10.951976, 0.975865, -0.469654, -0.030384, 22.674606, 138.725601, -235.442154
1715798084.877391, -0.294337, -1.163732, -8.969577, 0.650259, -0.629533, -0.074716, 23.119995, 139.296600, -236.016708
1715798084.910707, -0.308553, -1.387889, -8.767118, 0.198160, -0.120327, -0.005202, 23.310684, 139.396027, -236.316818
1715798084.944168, 0.038756, -1.255011, -8.591443, -0.029974, 0.120601, 0.038123, 23.303040, 139.495621, -236.408401
1715798084.977404, 0.054767, -0.872387, -9.599252, -0.141523, -0.446327, 0.111761, 23.312759, 139.291458, -236.547501
1715798085.010756, 0.192584, -0.734272, -9.617957, 0.144786, -0.907283, 0.093440, 23.790955, 139.393021, -236.547806
1715798085.044089, 0.264260, -0.799364, -8.514080, 0.044129, -0.434286, 0.124409, 24.169540, 139.482407, -236.994049
1715798085.077408, -0.734721, -1.217302, -8.138939, -0.008656, 0.076011, 0.077379, 24.495010, 139.623749, -236.926208
1715798085.110743, -1.004368, -1.757494, -9.000103, -0.094300, -0.136999, 0.135447, 24.528778, 139.514282, -236.791580
1715798085.144090, -1.341800, -1.876306, -9.494656, -0.042139, -0.248015, 0.093284, 24.685867, 139.704803, -237.019730
1715798085.177403, -0.982072, -2.175581, -9.645939, 0.004027, -0.151819, 0.139476, 24.953812, 139.449860, -236.947830
1715798085.210715, -1.096844, -1.995866, -9.381230, -0.102860, 0.100260, 0.190505, 25.089355, 139.235641, -237.137268
1715798085.244086, -1.019182, -1.953519, -9.912145, -0.376941, -0.060379, 0.353276, 24.939285, 139.305145, -237.004898
1715798085.277416, -1.388188, -2.935591, -12.152519, -0.285017, 0.178010, 0.373944, 25.263031, 138.713638, -236.622635
1715798085.310853, -1.955614, -4.587590, -15.821782, 0.137700, -0.592610, 0.569958, 25.618927, 138.727158, -236.680984
1715798085.344074, -4.597316, -4.393061, -19.820249, 0.928392, -0.621718, 0.464343, 26.008972, 138.560699, -236.769928
1715798085.377447, -6.742371, -3.512743, -20.346225, 1.163350, -0.593669, 0.211983, 27.005478, 139.282120, -237.950882
1715798085.410169, -8.403349, -0.895431, -19.619136, 1.879539, -0.203822, -0.602548, 26.648026, 139.448914, -238.182739
1715798085.444055, -6.783821, 0.802656, -14.620941, 2.442869, -1.035276, -0.948282, 26.315216, 140.902130, -239.787369
1715798085.477375, -6.448333, 2.517653, -8.032098, 1.945062, -1.381340, -1.276221, 26.634171, 142.230545, -241.822998
1715798085.510730, -5.357176, 3.210774, -1.688960, 0.757821, -1.587484, -1.464055, 26.204865, 143.141663, -243.119171
1715798085.544144, -4.257788, 2.297087, -2.357391, 0.158680, -1.272699, -1.855110, 26.002533, 143.269455, -243.084137
1715798085.577080, -2.995446, 1.650802, -1.824980, 0.123247, -1.616771, -1.873686, 25.516724, 144.242493, -243.533752
1715798085.610721, -2.369511, 0.962319, -0.694767, -0.117451, -1.795032, -2.005379, 24.551193, 144.596771, -243.868484
1715798085.644129, -1.252616, -0.173430, -0.496348, -0.937748, -1.782861, -1.849686, 24.175690, 144.651123, -243.915207
1715798085.677381, -0.981623, -1.020977, -1.968333, -1.205254, -1.067456, -1.937286, 23.199585, 145.012146, -243.612030
1715798085.710800, 1.096095, -2.033126, -3.304597, -1.207628, -0.622811, -1.723924, 22.333099, 144.717560, -243.042297
1715798085.744087, 0.901716, -2.147898, -3.501071, -1.507312, -0.628424, -1.546192, 21.899338, 144.729507, -242.421555
1715798085.777433, 2.042703, -2.212991, -5.108179, -1.693845, -0.600600, -1.366472, 21.502136, 144.044067, -241.052460
1715798085.810140, 2.575712, -2.212542, -6.543203, -1.734252, -0.217416, -1.190869, 20.903290, 143.310516, -239.809799
1715798085.844111, 3.503166, -2.521094, -7.580940, -1.710126, -0.003213, -0.815224, 20.583221, 142.218552, -238.339462
1715798085.877391, 3.803040, -2.449568, -8.341698, -1.687066, 0.123018, -0.458022, 20.367813, 141.809952, -237.892853
1715798085.910813, 3.364003, -2.184110, -8.943840, -1.740528, 0.377005, -0.176086, 20.427460, 140.682693, -236.787308
1715798085.944163, 2.144456, -2.350507, -11.544840, -1.719168, 0.357169, 0.074545, 20.601990, 139.669174, -235.591736
1715798085.977462, 1.846528, -2.454057, -12.581679, -1.208562, 0.354460, 0.297315, 20.210403, 139.109833, -234.671829
1715798086.010740, 1.467795, -1.487697, -12.011859, -0.998312, 0.728510, 0.369721, 19.662552, 138.205261, -233.589706
1715798086.044096, 1.329979, -1.389834, -12.513295, -1.010594, 0.592051, 0.612828, 19.020355, 137.813797, -232.967178
1715798086.076800, 0.320224, -0.658256, -12.522423, -0.713209, 0.616832, 0.703402, 18.537399, 137.592972, -232.724213
1715798086.110710, 0.487819, -0.178967, -12.424710, -0.396510, 0.450429, 0.768762, 18.517136, 137.170593, -232.629440
1715798086.144133, -0.231040, 0.154576, -10.642077, -0.520687, 0.394075, 0.796168, 17.886581, 136.759186, -232.362289
1715798086.177449, -1.026215, -0.083199, -10.447099, -0.665485, 0.443856, 0.755262, 17.729309, 136.437973, -232.459930
1715798086.210148, -0.670676, -0.395941, -10.686220, -0.540735, 0.323681, 0.646447, 17.800385, 136.543411, -232.556564
1715798086.244049, 0.148889, -0.176872, -9.808745, -0.568435, 0.050521, 0.856498, 17.545135, 135.793243, -232.485260
1715798086.277367, -0.671125, 0.192135, -10.216956, -1.095160, 0.196333, 1.088154, 17.294632, 135.284576, -232.441788
1715798086.310726, -0.589871, 0.378134, -12.168231, -0.619144, 0.227891, 0.969035, 17.599625, 135.202408, -232.320129
1715798086.344136, 0.716166, 1.227926, -11.355698, -0.459597, -0.332334, 1.116326, 17.775208, 134.616791, -232.404724
1715798086.377463, 1.018583, 1.714099, -10.745925, -0.602196, 0.244708, 1.319893, 18.685669, 134.392593, -232.275543
1715798086.410759, 1.200542, 2.048240, -11.299734, -0.583100, 0.364702, 1.367803, 18.479660, 134.090332, -232.428513
1715798086.444070, 1.599626, 2.697517, -12.911331, -0.597304, -0.141995, 1.678702, 18.730438, 133.643677, -232.370041
1715798086.476810, 1.084124, 3.311779, -13.803171, -0.350890, -0.199186, 1.719019, 19.350464, 133.246155, -232.283264
1715798086.510772, 1.739238, 3.898957, -14.364162, -0.062574, -0.163930, 2.008347, 19.965271, 132.790436, -232.341888
1715798086.544139, 1.074997, 4.382137, -14.358327, 0.004451, 0.159245, 2.243145, 20.321472, 132.655594, -232.432495
1715798086.577451, -0.164452, 3.901950, -14.620192, 0.130544, 0.141171, 2.136285, 21.170334, 132.539291, -232.225815
1715798086.610847, 0.659603, 3.882048, -14.468610, 0.301881, -0.487915, 2.474548, 21.826233, 132.319290, -232.383408
1715798086.644130, 0.224606, 4.208408, -14.193875, 0.301804, -0.153578, 2.544376, 22.465408, 131.975037, -232.328796
1715798086.677457, -1.151012, 3.898508, -14.990695, 0.291052, -0.157281, 2.520296, 23.503052, 131.778641, -232.290909
1715798086.710817, -1.802235, 4.119972, -15.526098, 0.734719, -0.762713, 2.379693, 24.143829, 131.602051, -232.376465
1715798086.744140, -2.958335, 4.285022, -14.845098, 1.065892, -0.576522, 1.951912, 25.357010, 131.591980, -233.031921
1715798086.777565, -2.928558, 4.110844, -14.203452, 1.408728, -0.750338, 1.646166, 25.907776, 131.814377, -233.290054
1715798086.810800, -3.581726, 4.481347, -11.481244, 1.455864, -0.431334, 1.067997, 27.170853, 132.409607, -233.970367
1715798086.844132, -3.842095, 4.190003, -10.554389, 1.295985, -0.338914, 0.742343, 27.350128, 132.921234, -234.344009
1715798086.877465, -4.430470, 4.345476, -10.220697, 1.076457, -0.804036, 0.438869, 27.721191, 133.244568, -234.683792
1715798086.910836, -4.409521, 3.656544, -9.357438, 0.974612, -1.142495, 0.090006, 28.352295, 133.912018, -235.509781
1715798086.944230, -4.925920, 3.004573, -8.799439, 1.009827, -0.555373, -0.501399, 29.231659, 134.276031, -236.192398
1715798086.977470, -4.920833, 2.608782, -7.830985, 0.848641, -1.013784, -0.859561, 29.009995, 134.734116, -236.465912
1715798087.010803, -4.525640, 2.411260, -7.996185, 0.696038, -1.207475, -1.199817, 29.031113, 135.357132, -237.164932
1715798087.044165, -4.169502, 2.399738, -7.502231, 0.666796, -0.980223, -1.580103, 29.247650, 136.485931, -237.965302
1715798087.076909, -3.801244, 2.204162, -6.761824, 0.637583, -1.214595, -1.769432, 29.040100, 137.511673, -238.690567
1715798087.110884, -3.798551, 1.776947, -4.501997, 0.306098, -1.404069, -1.986087, 28.759644, 138.016586, -239.339340
1715798087.144163, -2.899827, 0.809240, -5.105635, 0.283976, -1.218192, -2.203300, 28.697006, 139.030838, -239.870331
1715798087.177480, -2.964022, 0.892139, -4.012981, 0.034820, -1.187492, -2.350879, 27.715881, 140.129974, -240.360748
1715798087.210936, -2.080561, 0.650175, -3.593248, -0.335126, -1.325026, -2.366857, 27.483612, 140.483414, -240.634735
1715798087.244138, -1.773355, 0.358083, -4.328567, -0.598516, -1.013688, -2.445885, 26.467728, 141.369659, -240.829193
1715798087.277469, -1.243488, 0.076315, -4.357746, -0.804670, -0.994789, -2.411133, 25.370300, 141.765045, -240.528671
1715798087.310774, -0.630274, -0.073472, -4.424036, -0.932128, -0.786295, -2.401452, 25.220505, 141.753036, -240.332153
1715798087.344171, 0.492906, -0.639401, -4.566042, -1.179225, -0.554102, -2.176481, 24.120895, 142.157516, -240.195969
1715798087.377557, 0.428263, -0.731429, -5.215768, -1.412392, -0.449856, -2.112358, 22.610886, 141.987320, -239.145966
1715798087.410877, 1.589600, -1.151761, -6.568941, -1.331386, -0.289338, -1.886546, 21.865524, 141.585892, -237.882721
1715798087.444140, 3.039888, -1.432331, -7.119458, -1.195740, 0.180621, -1.461837, 21.258423, 141.234207, -237.505127
1715798087.477523, 2.246060, -0.835726, -6.984036, -1.211708, 0.618478, -1.466435, 20.695541, 140.981674, -236.410217
1715798087.510849, 3.664625, -0.949900, -8.151060, -1.377956, 0.181933, -1.174706, 19.638672, 140.335602, -235.837570
1715798087.544138, 4.581305, -1.201141, -9.715970, -1.309257, 0.338868, -0.730243, 19.375702, 139.678314, -235.426849
1715798087.577475, 4.209755, -1.236755, -10.119393, -1.219059, 1.163361, -0.395186, 18.515808, 139.335007, -234.321335
1715798087.610808, 3.175310, -1.340005, -10.733655, -1.285523, 0.883004, -0.272035, 17.369888, 138.581985, -233.376495
1715798087.644109, 2.971653, -1.096694, -11.119121, -1.219784, 0.248422, -0.118852, 16.593155, 137.525040, -232.720474
1715798087.677509, 3.484611, -0.990302, -11.146206, -1.386714, 0.501655, 0.261843, 15.919586, 137.107361, -232.435883
1715798087.710855, 2.632425, -0.298976, -11.233594, -1.349570, 1.071503, 0.247205, 15.395172, 136.066193, -231.883224
1715798087.744088, 3.862147, -0.235081, -12.238261, -1.535203, -0.047117, 0.811111, 15.100754, 135.101303, -231.483719
1715798087.777490, 2.194136, 0.325761, -13.230957, -1.225047, 0.609481, 0.967423, 15.020813, 134.653595, -231.331039
1715798087.810757, 2.813786, 1.207875, -13.746608, -1.039767, 0.684040, 1.064333, 14.888687, 133.826904, -231.332169
1715798087.844240, 2.891896, 2.177377, -15.108610, -0.887347, -0.029083, 1.342934, 14.630554, 133.292770, -231.369125
1715798087.877465, 3.416975, 2.852542, -15.313314, -0.451267, -0.230631, 1.411770, 14.773804, 133.156616, -231.624252
1715798087.910855, 3.286042, 3.796156, -14.573356, -0.419858, 0.072881, 1.813029, 15.179993, 132.828217, -231.853836
1715798087.944133, 2.474258, 3.884891, -15.154399, -0.201808, 0.215859, 1.899360, 15.541916, 132.631790, -231.797592
1715798087.977571, 1.841291, 4.338293, -14.769082, -0.058808, -0.619272, 2.198728, 16.644791, 132.762466, -231.987976
1715798088.010879, 1.282394, 4.726902, -14.229638, 0.116806, -0.649255, 2.349316, 17.057968, 132.331451, -231.768661
1715798088.044204, 1.050755, 4.636072, -13.971214, 0.303973, -0.504180, 2.574659, 18.473434, 132.767059, -232.055557
1715798088.077482, -0.984615, 4.300285, -13.211953, 0.360459, -0.411695, 2.396983, 19.635300, 133.037811, -232.237518
1715798088.110899, -0.976236, 3.677045, -13.239337, 0.634730, -0.940130, 2.308431, 20.106506, 132.917984, -232.591827
1715798088.144171, -1.585410, 2.950854, -12.826636, 0.782993, -0.527655, 2.053853, 21.665314, 133.178253, -232.630142
1715798088.177477, -2.072032, 3.271976, -12.905196, 0.950922, -0.076922, 1.982993, 22.545532, 133.422577, -232.751953
1715798088.210953, -2.489521, 3.648614, -13.234399, 0.996872, -0.025874, 1.773011, 22.759125, 133.528366, -233.501495
1715798088.244153, -2.997241, 4.159177, -13.859734, 1.228505, 0.069057, 1.576681, 23.295670, 134.035599, -233.520004
1715798088.277515, -3.496283, 4.380342, -13.696480, 1.387667, -0.334563, 1.284262, 24.221436, 134.600769, -233.870667
1715798088.310881, -3.716549, 4.002656, -12.964602, 1.591821, -0.550889, 0.899262, 25.104492, 135.353043, -234.294708
1715798088.344257, -3.397821, 3.073856, -12.077101, 1.647476, -0.671884, 0.628590, 25.094208, 135.694061, -234.747192
1715798088.377496, -3.936816, 2.662652, -10.928034, 1.366257, -1.097685, 0.499941, 26.014053, 136.525253, -235.436340
1715798088.410818, -5.379472, 2.405574, -10.479570, 1.052609, -1.011218, 0.137847, 27.094101, 137.056366, -236.618042
1715798088.444229, -5.659893, 2.102408, -9.596559, 1.202177, -0.982084, -0.473183, 27.063965, 137.446762, -236.982132
1715798088.477491, -5.625177, 1.874361, -7.594707, 1.077934, -1.328503, -0.882774, 27.413361, 138.191635, -238.053680
1715798088.510866, -4.786308, 1.167173, -5.951088, 0.924650, -1.532472, -1.140623, 27.827087, 139.036514, -238.913269
1715798088.544162, -4.673781, 0.615011, -4.763414, 0.456042, -1.143321, -1.547323, 27.814194, 140.077438, -239.683044
1715798088.577459, -3.959710, 0.144251, -5.645228, 0.451786, -1.144777, -1.762555, 27.643723, 140.410217, -240.307358
1715798088.610824, -3.268833, -0.170437, -4.465186, 0.516665, -1.016611, -1.980663, 27.242294, 141.489655, -241.053589
1715798088.644154, -2.456002, -0.320524, -3.260753, 0.213854, -1.235648, -2.007656, 26.545197, 142.476227, -241.650681
1715798088.677488, -1.918504, -0.500687, -2.750489, -0.110105, -1.023993, -1.993356, 26.123535, 142.519348, -241.888336
1715798088.710793, -1.436072, -0.661249, -2.816329, -0.451900, -0.695516, -1.943125, 24.984970, 142.979996, -241.773941
1715798088.744159, -1.139191, -1.089511, -3.172916, -0.836337, -0.180472, -1.802447, 23.792618, 143.159668, -241.238052
1715798088.777542, -1.159542, -1.457919, -4.013281, -0.693499, 0.074055, -1.879496, 23.524612, 143.288071, -241.005157
1715798088.810853, -0.750133, -1.475726, -3.209577, -0.816593, -0.002030, -1.930043, 22.213303, 143.391464, -240.382874
1715798088.844206, -0.460435, -1.218798, -4.370914, -1.403631, -0.604354, -1.761079, 20.687805, 143.283340, -239.690765
1715798088.877513, 0.133926, -1.543362, -6.000468, -1.313581, -0.042851, -1.782138, 20.074036, 142.559280, -238.831833
1715798088.910832, 1.106869, -1.228076, -6.571036, -1.161363, 0.333151, -1.753677, 19.366669, 142.060242, -238.301392
1715798088.944160, 1.513884, -0.666037, -6.778434, -1.416770, -0.014561, -1.717721, 18.105331, 141.588669, -237.219177
1715798088.977464, 2.787599, -0.375740, -7.693168, -1.588378, -0.531014, -1.478236, 17.573486, 140.617477, -236.242126
1715798089.010898, 3.762937, 0.297031, -8.730606, -1.608402, -0.340394, -1.256292, 17.668106, 140.238937, -235.696701
1715798089.044164, 4.801721, 0.401178, -9.401880, -1.548949, 0.156220, -1.301085, 17.149902, 139.164352, -234.779221
1715798089.077423, 5.892579, 0.621744, -10.025121, -1.671062, -0.725610, -0.569993, 16.677475, 137.965225, -233.531387
1715798089.110865, 4.942829, 1.232864, -10.442161, -1.717668, -0.256871, -0.393229, 16.850769, 137.408798, -232.951187
1715798089.144179, 5.716605, 1.380257, -12.848483, -1.447314, -0.072069, -0.135712, 16.183777, 135.995209, -231.779510
1715798089.177356, 4.736778, 1.556680, -12.184242, -1.421232, -0.385908, 0.519747, 16.121307, 135.114700, -231.667023
1715798089.210620, 3.773711, 1.327884, -12.658443, -1.279015, 0.233064, 0.634296, 16.138138, 134.000275, -231.234116
1715798089.244169, 2.794033, 1.708413, -12.607567, -1.217908, 0.427266, 0.645432, 15.874603, 133.560287, -231.258698
1715798089.277496, 2.733430, 1.784428, -13.332710, -1.321958, 0.064205, 1.047242, 15.628525, 132.461838, -230.935974
1715798089.310913, 1.861641, 2.364573, -14.647875, -1.002748, 0.150159, 1.106982, 15.492859, 131.809189, -230.898453
1715798089.344166, 1.860594, 3.022081, -14.811280, -0.856266, -0.040113, 1.311601, 15.480301, 131.724655, -230.966461
1715798089.377481, 1.080982, 3.762787, -15.124621, -0.632018, -0.102929, 1.545836, 15.724991, 131.214859, -231.466568
1715798089.410834, 1.179593, 4.241777, -14.712369, -0.308514, -0.065869, 1.588544, 15.877182, 130.750015, -231.781631
1715798089.444135, 1.562965, 4.539556, -14.842404, -0.003668, -0.624577, 1.880141, 17.113754, 131.046356, -231.754547
1715798089.477550, 0.324414, 4.724807, -14.403966, 0.288329, -1.259274, 2.121429, 17.725311, 130.943359, -231.799576
1715798089.510920, 0.446818, 4.755633, -12.892028, 0.275431, -1.109165, 2.463140, 19.251328, 131.172745, -231.994553
1715798089.544194, -0.932242, 5.346701, -13.335853, 0.032278, -0.597996, 2.518458, 20.608002, 131.046417, -231.835922
1715798089.577502, -1.654244, 5.613056, -15.340697, 0.386743, -0.919546, 2.492839, 21.114761, 131.064224, -231.988480
1715798089.610887, -2.583044, 6.225822, -14.997279, 0.692726, -0.957144, 2.625252, 22.626389, 130.892883, -232.344162
1715798089.644159, -3.989638, 6.413917, -14.822054, 0.840002, -0.597476, 2.402891, 24.052505, 130.901688, -232.723267
1715798089.677432, -4.194641, 6.885425, -14.562732, 1.043082, -0.426532, 2.174405, 24.423752, 131.140244, -232.869308
1715798089.710800, -4.348319, 7.039252, -13.559711, 1.446008, 0.206309, 1.660501, 24.913010, 131.454498, -233.106567
1715798089.744180, -3.963451, 6.321291, -12.624625, 1.850254, -0.138667, 1.442786, 25.081757, 132.225098, -233.347656
1715798089.777584, -4.582053, 6.152200, -10.208427, 1.897427, -0.440822, 0.989568, 25.897568, 132.915726, -234.053375
1715798089.810845, -3.137751, 4.449923, -8.440908, 1.608778, -0.319877, 0.750188, 26.226089, 133.411713, -234.275589
1715798089.844171, -4.312556, 3.873519, -8.225130, 1.257560, -0.320328, 0.546133, 26.689621, 134.365616, -234.801529
1715798089.877506, -5.187487, 3.076399, -8.767866, 0.951615, -0.618037, 0.389301, 27.361176, 134.660721, -235.175003
1715798089.910838, -5.966201, 2.624943, -8.857948, 0.844272, -0.505794, -0.025361, 27.379013, 135.012344, -235.544083
1715798089.944198, -5.611410, 2.721609, -8.587403, 1.268362, -0.500591, -0.567952, 27.782639, 135.691116, -235.952133
1715798089.977592, -5.258116, 2.345270, -7.305757, 1.379109, -0.492963, -0.964910, 27.781921, 136.788559, -237.046875
1715798090.010893, -4.662408, 1.570147, -5.665878, 1.329719, -0.347698, -1.263804, 27.319031, 137.337570, -237.322861
1715798090.044141, -3.834015, 1.212065, -4.963629, 0.821873, -0.644360, -1.449643, 27.115067, 138.494431, -238.009949
1715798090.077488, -3.650559, 0.636708, -5.446061, 0.632893, -0.674965, -1.638140, 26.748840, 139.412933, -238.729126
1715798090.110927, -2.728642, -0.450559, -5.239710, 0.745375, -0.346596, -1.779291, 25.741333, 140.548065, -239.079010
1715798090.144175, -2.708141, -0.868347, -4.615422, 0.564721, -0.597349, -1.923407, 25.610489, 140.866028, -239.291336
1715798090.177585, -2.076222, -1.033996, -5.131373, 0.407894, -1.020277, -1.953178, 24.757339, 142.006851, -240.102600
1715798090.210883, -1.858649, -0.991648, -4.095731, 0.362068, -0.490057, -2.047666, 23.706528, 142.800400, -240.317596
1715798090.244199, -1.547702, -1.301997, -3.781492, -0.286884, -0.549028, -1.902250, 23.361404, 142.764160, -240.498779
1715798090.277587, -1.812860, -1.265336, -5.078700, -0.417121, -0.635368, -1.911589, 22.421631, 142.814331, -240.351364
1715798090.310851, -1.377115, -1.354520, -5.118205, -0.280858, -0.168324, -2.020856, 21.356476, 143.261780, -240.274078
1715798090.344130, -1.149217, -1.768866, -4.281281, -0.411141, -0.405626, -2.044080, 20.799316, 143.315720, -239.816910
1715798090.377516, -1.366790, -1.417068, -4.579060, -0.453553, -1.286668, -2.115872, 19.702087, 142.896683, -239.172302
1715798090.410848, 0.301969, -1.132457, -6.266524, -0.209757, -2.347711, -2.073759, 18.942398, 143.277130, -239.038345
1715798090.444181, 2.117671, 0.631471, -4.589236, -0.370351, -2.025151, -2.090870, 18.665329, 143.128113, -239.079819
1715798090.477516, 5.024681, -0.126144, -5.038148, -1.235294, -1.247672, -1.490096, 18.815430, 143.095062, -238.582413
1715798090.510958, 4.299088, 0.126893, -6.628946, -1.656388, -1.089378, -1.109329, 18.543991, 142.456131, -237.778595
1715798090.544262, 5.575647, 0.522834, -9.710283, -1.917648, -0.468564, -0.853735, 18.600601, 141.234528, -236.417740
1715798090.577575, 5.505766, 0.328305, -11.347019, -1.752220, 0.478343, -0.488369, 18.236389, 140.775757, -235.510880
1715798090.610875, 5.232528, 0.071676, -12.388048, -1.824401, 0.116910, -0.019613, 17.430466, 139.708786, -234.223938
1715798090.644183, 4.106505, -0.003142, -13.735535, -1.624948, 0.421578, 0.252002, 16.935486, 138.620865, -233.211182
1715798090.677517, 3.379416, 0.089633, -13.141025, -1.617349, 0.893109, 0.339891, 16.049911, 137.308884, -232.545486
1715798090.710826, 3.396774, -0.676362, -13.319393, -1.558592, 0.525094, 0.740760, 15.663651, 136.811783, -232.252518
1715798090.744181, 1.745523, 0.076465, -12.348095, -1.652397, 0.601589, 0.798036, 15.002411, 135.504822, -232.082291
1715798090.777546, 1.663671, 0.466420, -14.444668, -1.626338, 0.493661, 0.869634, 14.738983, 134.339127, -231.712173
1715798090.810857, 2.802563, 1.701380, -15.026159, -1.384248, -0.150298, 1.199442, 14.571716, 133.703415, -231.689453
1715798090.844183, 3.220949, 2.502539, -15.417013, -1.274067, -0.061984, 1.708338, 15.112183, 132.701645, -231.979996
1715798090.877575, 2.429366, 3.925443, -15.900342, -0.795854, -0.026783, 1.756284, 15.276871, 131.811630, -232.259369
1715798090.910853, 3.767276, 4.683807, -14.664934, -0.559326, -0.288077, 2.679384, 15.622238, 131.794174, -232.019409
1715798090.944239, 0.273089, 5.861006, -14.320768, -0.611694, 0.834966, 2.420583, 16.888184, 131.624069, -232.295868
1715798090.977519, 2.723105, 5.876718, -13.813197, -0.616778, 1.669098, 2.139250, 16.685959, 131.240982, -232.356842
1715798091.010928, 2.113332, 5.928941, -14.240263, -1.015503, 0.703181, 2.930784, 16.152710, 130.531158, -231.819763
1715798091.044199, -0.258873, 6.126612, -15.949573, -0.678949, 0.200769, 2.636117, 16.159515, 130.114761, -231.645325
1715798091.077517, 0.958130, 5.932832, -16.465673, 0.042155, -0.712532, 2.608527, 17.018188, 130.134445, -231.282852
1715798091.110859, -0.283713, 6.551134, -14.853328, 0.561464, -0.983609, 2.786696, 18.215256, 130.320038, -231.546219
1715798091.144032, -1.397466, 6.459855, -13.560908, 0.690097, -0.342142, 2.304741, 19.063004, 130.836945, -231.526733
1715798091.177657, -0.920122, 6.537368, -13.707403, 0.901232, -0.243692, 2.129116, 19.866577, 131.015701, -231.533752
1715798091.210912, -1.390582, 6.286575, -13.003358, 1.294724, -0.383233, 1.859196, 20.178772, 131.770386, -231.935730
1715798091.244209, -1.691204, 6.185570, -11.937938, 1.611341, -0.515340, 1.633009, 20.591431, 132.314362, -231.858322
1715798091.277558, -1.344344, 5.852476, -10.109517, 1.402503, -0.209197, 1.512722, 21.762527, 133.051361, -232.299835
1715798091.310835, -2.894440, 4.381090, -10.315418, 1.235905, -0.470030, 1.117150, 22.255524, 133.846359, -232.321167
1715798091.344187, -2.650232, 3.613449, -11.083657, 1.319769, -1.166779, 0.927022, 23.451660, 134.868073, -233.125122
1715798091.377537, -2.797325, 3.148674, -10.131513, 1.399770, -0.701869, 0.521889, 23.710266, 134.591675, -233.598816
1715798091.410927, -3.321356, 2.335095, -9.500641, 1.337960, -0.771230, 0.089002, 24.443542, 135.735779, -233.817551
1715798091.444165, -3.548656, 1.865682, -9.021651, 1.431354, -1.161480, -0.384201, 24.915222, 136.598434, -234.950165
1715798091.477532, -3.439121, 1.290325, -8.298453, 1.566708, -0.670178, -0.817217, 25.213074, 137.017670, -235.604950
1715798091.510848, -3.298911, 1.058387, -6.604854, 1.555938, -0.488820, -1.053491, 24.832245, 138.393616, -236.312729
1715798091.544203, -3.589507, 0.482731, -6.963835, 1.277159, -0.210727, -1.590972, 24.485870, 139.326172, -237.113968
1715798091.577537, -2.443283, -0.003891, -6.824971, 1.503285, -0.784926, -1.640873, 24.000687, 140.744980, -238.297775
1715798091.610865, -2.651129, 0.336535, -4.493318, 1.184566, -1.342831, -1.849215, 23.610474, 141.223083, -238.924347
1715798091.644255, -2.007239, -0.237176, -4.062062, 0.683851, -1.393006, -1.973303, 23.101624, 142.385742, -239.544586
1715798091.677539, -1.702277, -0.587328, -4.017021, 0.488706, -1.217724, -2.167151, 22.279144, 143.068253, -240.303482
1715798091.710866, -0.624438, -1.151910, -4.112041, 0.338331, -1.427263, -2.149054, 21.942749, 143.061249, -240.633560
1715798091.744199, -0.799214, -1.134103, -3.660435, 0.115851, -1.382021, -2.162560, 21.074402, 143.631851, -240.993423
1715798091.777545, 0.110582, -1.310825, -3.383157, -0.081449, -1.319421, -2.224009, 20.078644, 144.005753, -241.123489
1715798091.810867, 2.361730, -1.455375, -2.384625, -0.448883, -0.996433, -1.961397, 19.807266, 144.377640, -241.213791
1715798091.844245, 2.644396, -1.184232, -2.960879, -1.043899, -1.317656, -1.618211, 18.715317, 144.016998, -240.720703
1715798091.877535, 3.572747, -1.163432, -3.898808, -1.512654, -1.641337, -1.315966, 18.576477, 143.579666, -239.709274
1715798091.910868, 4.066252, -0.932841, -5.286098, -1.663716, -1.043527, -1.257652, 18.710556, 143.035233, -238.615311
1715798091.944264, 4.139575, -0.937180, -5.965153, -1.718722, -0.518749, -1.316434, 18.122253, 142.309387, -237.602295
1715798091.977510, 4.109647, -0.618602, -7.833828, -2.161659, -1.437904, -0.879399, 18.144241, 141.245895, -236.539444
1715798092.010881, 5.187786, 0.011073, -10.144083, -1.752189, 0.243319, -0.763075, 18.113998, 139.787445, -234.826904
1715798092.044200, 6.007052, -0.297330, -11.490672, -1.608264, 0.373054, -0.294144, 17.592117, 139.415070, -234.396591
1715798092.077647, 3.117999, 0.392350, -12.532748, -1.814838, -0.441066, -0.059125, 17.673111, 138.342422, -233.324860
1715798092.110886, 3.602226, 0.016310, -13.482049, -1.435471, 0.059729, -0.043630, 17.119461, 136.884766, -232.493454
1715798092.144287, 2.266411, 0.652121, -13.393463, -1.457997, 0.417540, 0.206864, 16.877899, 136.482376, -232.326859
1715798092.177543, 1.315913, 0.858172, -12.562226, -1.296893, 0.683809, -0.031704, 16.156555, 135.378708, -231.839279
1715798092.210868, 1.972224, 1.049558, -13.197438, -1.327021, 0.007269, 0.332793, 15.616684, 134.102798, -231.530487
1715798092.244277, 1.502362, 1.698836, -13.171401, -1.213364, 0.084079, 0.342576, 15.309784, 133.490158, -231.534653
1715798092.277564, 4.538509, 2.511368, -13.528736, -0.881470, -0.394120, 1.096501, 15.808655, 132.922180, -231.290421
1715798092.310850, 3.185485, 3.398270, -13.290812, -1.120450, 0.130975, 1.421513, 15.991379, 132.624084, -231.528046
1715798092.344257, 2.981230, 3.525462, -15.712098, -0.769682, -0.176798, 1.725520, 16.271393, 131.883286, -231.649261
1715798092.377620, 1.681478, 3.930082, -15.354464, -0.612820, -0.642514, 1.859635, 16.698181, 131.674362, -231.783356
1715798092.410874, 1.556830, 3.930381, -16.256180, 0.106503, 0.162096, 1.870322, 17.282394, 131.123550, -231.749222
1715798092.444208, 1.848623, 4.749946, -14.860510, 0.282645, -0.109676, 2.077213, 17.903763, 131.620468, -232.026855
1715798092.477507, -0.233884, 4.459051, -15.110705, 0.360925, -0.236838, 2.203129, 18.942307, 131.906662, -232.001083
1715798092.510958, 0.066589, 4.723012, -14.671368, 0.662453, 0.301098, 2.114070, 19.136459, 132.157227, -232.104874
1715798092.544207, -0.699107, 4.955249, -14.708928, 0.705619, 0.124938, 2.274643, 19.539642, 132.582397, -232.282562
1715798092.577566, -2.235436, 4.776432, -14.667179, 1.018695, 0.202821, 2.252751, 20.452560, 133.194382, -232.276810
1715798092.610951, -3.041534, 4.432116, -13.750948, 1.168814, -0.019584, 2.018710, 20.616455, 133.558517, -232.258209
1715798092.644209, -2.631976, 4.468478, -13.291261, 1.309958, 0.263861, 1.867272, 21.065567, 133.971115, -233.062225
1715798092.677611, -3.206584, 4.437204, -11.877634, 1.368718, 0.135622, 1.775781, 21.550232, 134.705490, -232.993423
1715798092.710879, -2.913743, 3.781941, -11.057022, 1.233485, -0.370823, 1.575824, 21.657623, 135.262405, -233.264847
1715798092.744255, -3.369839, 3.587861, -10.070311, 0.935822, -0.288752, 1.409803, 22.703827, 135.776367, -233.901978
1715798092.777626, -3.687519, 2.906561, -10.300005, 0.662800, -0.207810, 1.213503, 23.320602, 135.863480, -234.362228
1715798092.810852, -4.492719, 1.921945, -11.243620, 0.879892, -0.363448, 0.813223, 24.028137, 136.197861, -234.543198
1715798092.844242, -4.867711, 1.742231, -10.579678, 0.961833, -0.401653, 0.360811, 24.463837, 136.226669, -234.585754
1715798092.877552, -4.339191, 1.457021, -10.547805, 0.973826, -0.987643, 0.089686, 25.077881, 136.751465, -235.144180
1715798092.910969, -4.447080, 1.246481, -10.305991, 0.970406, -0.800295, -0.250069, 25.329086, 137.171234, -236.120483
1715798092.944213, -4.471172, 0.915632, -10.028263, 1.151582, -0.904580, -0.845488, 25.513214, 137.752640, -236.398666
1715798092.977623, -3.564817, 0.863708, -9.232790, 1.211852, -0.915457, -0.982838, 25.724945, 138.570358, -236.948212
1715798093.010963, -4.372112, 1.281646, -7.483227, 0.943651, -1.146418, -1.349104, 25.698624, 139.803024, -238.188187
1715798093.044324, -3.270928, 0.707936, -7.202208, 0.912312, -1.102860, -1.624419, 25.716690, 140.022934, -238.653076
1715798093.077548, -3.432537, 0.770634, -6.153547, 0.867540, -0.925740, -1.889062, 25.000351, 141.145676, -239.157074
1715798093.110919, -2.974197, 0.308553, -4.960187, 0.739870, -1.225174, -2.143753, 24.641144, 142.182114, -240.294525
1715798093.144277, -1.365742, -0.298826, -4.246566, 0.571839, -1.312044, -2.149157, 23.598633, 143.126083, -240.912399
1715798093.177668, -1.062577, 0.001347, -3.529652, 0.275257, -1.087004, -2.127506, 23.207596, 143.271759, -241.410004
1715798093.210866, -0.568623, -0.654665, -3.505710, -0.237733, -0.978351, -2.306576, 22.523697, 143.757523, -241.153915
1715798093.243322, 0.942717, -1.731307, -4.217237, -0.413268, -1.028585, -2.033108, 21.460831, 144.074188, -241.257507
1715798093.277558, 1.113304, -1.663970, -3.888183, -0.355859, -0.437429, -1.921073, 20.873047, 143.939362, -240.880722
1715798093.310914, 1.102530, -1.312920, -3.108871, -0.748453, -0.596588, -2.049897, 19.650009, 144.098938, -240.565781
1715798093.344188, 3.712509, -1.725022, -4.427178, -1.316828, -1.086129, -1.725072, 18.833969, 143.854950, -239.536148
1715798093.377525, 4.070442, -2.182016, -5.482423, -1.134648, 0.044438, -1.443259, 17.922089, 142.912598, -238.941284
1715798093.410997, 4.187309, -1.692701, -5.007024, -1.244977, 0.200998, -1.269855, 17.553604, 142.778091, -238.655731
1715798093.444220, 4.689792, -0.994940, -5.759402, -1.836517, -0.515539, -1.139728, 17.100815, 141.829315, -237.092545
1715798093.477558, 5.611410, -0.575955, -8.127118, -1.869431, -0.196193, -0.790760, 17.209198, 140.984360, -236.143234
1715798093.510932, 5.441272, -0.827795, -9.658209, -1.831909, 0.166256, -0.572132, 16.702347, 140.197159, -235.317978
1715798093.544223, 5.242703, -0.170437, -11.132290, -1.611489, 0.385858, -0.291149, 16.273987, 138.990387, -233.984711
1715798093.577560, 4.910957, -0.214580, -11.840674, -1.360317, 0.723431, 0.109542, 15.339691, 137.907486, -233.007095
1715798093.610891, 3.705775, 0.275184, -12.054506, -1.177634, 0.248334, 0.318550, 14.850128, 137.154938, -232.704117
1715798093.644221, 3.649661, 0.738611, -11.219079, -1.495079, -0.424640, 0.490552, 14.652740, 136.435593, -232.460327
1715798093.677556, 2.966416, 0.741155, -12.681338, -1.517718, -0.117342, 0.862815, 14.815277, 135.467896, -231.859329
1715798093.710942, 2.294992, 0.992247, -12.290335, -1.240473, 0.920115, 0.572635, 14.531387, 134.337433, -231.881134
1715798093.744201, 2.860622, 1.345841, -12.729521, -1.392406, 0.133068, 1.005233, 14.135193, 134.038361, -231.619400
1715798093.777601, 1.497124, 2.082507, -13.945177, -1.191770, -0.221934, 0.917232, 14.476913, 133.409637, -231.694778
1715798093.810888, 2.942773, 2.583044, -14.316129, -0.790489, 0.110630, 0.953158, 14.733154, 132.514465, -231.663605
1715798093.844250, 2.955343, 3.273622, -13.960440, -0.844689, -0.246302, 1.322938, 14.777451, 132.357559, -231.667557
1715798093.877541, 1.671901, 4.283376, -15.324836, -0.325266, -0.768130, 1.269648, 15.546631, 132.086807, -231.836807
1715798093.910893, 2.590526, 4.376451, -15.340249, 0.025890, -1.571809, 1.707844, 17.067596, 132.290787, -232.203308
1715798093.944226, 0.727837, 3.777601, -14.727932, 0.172216, 0.141919, 1.642720, 17.843842, 132.018661, -232.029846
1715798093.977560, 0.290447, 3.614646, -14.239215, 0.389410, 0.411999, 1.605191, 18.142700, 132.365173, -232.260361
1715798094.010914, 0.083199, 3.911677, -13.729699, 0.168435, -0.957512, 2.221205, 18.890472, 132.504242, -232.199371
1715798094.044230, -1.001674, 4.134487, -13.844770, 0.211236, -0.519787, 2.386425, 19.995972, 132.606796, -232.215546
1715798094.077564, -2.270302, 3.910928, -15.048306, 0.335759, -0.234550, 2.324357, 20.606964, 132.647919, -232.275589
1715798094.110964, -3.263447, 4.792892, -15.358953, 0.751844, -1.052088, 2.187778, 21.509033, 132.482742, -232.455795
1715798094.144333, -3.794810, 5.360767, -14.886248, 1.186375, -1.297258, 1.878124, 23.136581, 132.747559, -232.778458
1715798094.177561, -2.722507, 4.989965, -12.625523, 1.412533, -0.653919, 1.550194, 23.902390, 132.977005, -232.928772
1715798094.210898, -3.010709, 4.815338, -12.112117, 1.425668, -0.944964, 1.494136, 25.083344, 133.561188, -233.639954
1715798094.244230, -3.796007, 4.618565, -10.575039, 1.369553, -0.867869, 1.314623, 26.396774, 134.261047, -234.225800
1715798094.277639, -4.304625, 4.045602, -8.753650, 0.992309, 0.665939, 0.932902, 26.377808, 134.346817, -234.966248
1715798094.310864, -4.094983, 3.108572, -10.803685, 0.796928, -0.056996, 1.028959, 26.394211, 134.420731, -234.714035
1715798094.344305, -5.517587, 3.388394, -10.848427, 0.745795, -0.284984, 0.618494, 26.585846, 134.568481, -235.001236
1715798094.377558, -5.678597, 2.945766, -11.336096, 1.139330, 0.112611, -0.079512, 26.852036, 135.241364, -235.393005
1715798094.411013, -4.954052, 3.094356, -10.414179, 1.628479, -0.216919, -0.416699, 27.031113, 135.667557, -235.683426
1715798094.444303, -4.709544, 3.194164, -8.662072, 1.619373, -0.802397, -0.874631, 26.830154, 136.635895, -236.988831
1715798094.477430, -4.292205, 3.186533, -7.123947, 1.511891, -0.671589, -1.104113, 26.929871, 138.106735, -237.321838
1715798094.510718, -3.871424, 2.133533, -4.871751, 1.406367, -0.682146, -1.350978, 26.855377, 138.852554, -237.821777
1715798094.543875, -3.678242, 2.092832, -3.019238, 1.117524, -0.835224, -1.554959, 26.565277, 139.771698, -239.020889
1715798094.577594, -3.541772, 1.195305, -2.439392, 0.734459, -1.752461, -1.671804, 26.297806, 141.281586, -240.371735
1715798094.610868, -3.190573, -0.086790, -2.080112, 0.461860, -1.928506, -1.958750, 25.814377, 141.979706, -241.169647
1715798094.644284, -2.217779, -0.795324, -2.236783, 0.023961, -0.702327, -2.159201, 25.472809, 142.483063, -240.973389
1715798094.677570, -1.940800, -1.060631, -2.836231, -0.281947, -0.360118, -2.142922, 24.765366, 142.689026, -241.266266
1715798094.710939, -1.314866, -1.750610, -3.583521, -0.385807, -0.312341, -2.290605, 23.148148, 143.172882, -240.912537
1715798094.744025, -0.688034, -1.820341, -3.768473, -0.549647, -0.333136, -2.278332, 22.333237, 143.219879, -240.943176
1715798094.777571, -0.781408, -1.746720, -3.655048, -0.773077, -0.331120, -2.461216, 20.677338, 143.357376, -240.537109
1715798094.810908, 0.655712, -1.731008, -4.627992, -0.918066, -0.737568, -2.357935, 19.575470, 143.555496, -239.592804
1715798094.844212, 2.033425, -1.149067, -5.120748, -0.961998, -0.857980, -2.079126, 18.864471, 143.263504, -239.462067
1715798094.877574, 3.019537, -1.112705, -4.787057, -1.303438, -0.027134, -2.090357, 18.213821, 142.593201, -238.233521
1715798094.910904, 4.995651, -0.389058, -5.941660, -1.677058, -0.152545, -1.475629, 16.633377, 142.075256, -237.166748
1715798094.944241, 4.583400, -0.253785, -9.404125, -1.824087, -0.331574, -1.013475, 16.515366, 140.782776, -235.930573
1715798094.977573, 5.225195, 0.223708, -9.472060, -1.453117, 0.441733, -1.066396, 16.252869, 140.344635, -235.387543
1715798095.010916, 5.124489, 0.860267, -10.955119, -1.644992, -0.621478, -0.648659, 15.436996, 139.397186, -234.255798
1715798095.044245, 5.344157, 0.937330, -11.581053, -1.627810, -0.675106, -0.596036, 15.300110, 137.827271, -233.125885
1715798095.077649, 6.419603, 0.431854, -12.499229, -1.327860, 0.721264, -0.306165, 15.377762, 137.524307, -232.321106
1715798095.110908, 6.426785, 1.027262, -13.244574, -1.136565, 0.397609, 0.290314, 14.524994, 136.240921, -232.076721
1715798095.144270, 4.229208, 1.144877, -12.204593, -1.431491, -0.396992, 0.726248, 14.178955, 135.687302, -231.599075
1715798095.177616, 2.930952, 1.033397, -12.662184, -1.371325, 0.790658, 0.600115, 14.463638, 135.092865, -231.925491
1715798095.210988, 2.438943, 1.494431, -12.795063, -1.625873, 0.741361, 0.680558, 13.517014, 134.259109, -231.657333
1715798095.244294, 2.696619, 1.414674, -14.161553, -1.433890, -0.047192, 0.852466, 12.986664, 133.067398, -231.736343
1715798095.277580, 2.536806, 2.289156, -14.098406, -1.133277, -0.166798, 1.228996, 13.537842, 132.472076, -231.570709
1715798095.310962, 2.070236, 3.205537, -14.153173, -0.957114, 0.021531, 1.288328, 13.958740, 132.012512, -232.114059
1715798095.344245, 2.910302, 3.422511, -14.922011, -0.777943, -0.378292, 1.762496, 14.066269, 131.688950, -232.339569
1715798095.377645, 1.459864, 4.331560, -15.322741, -0.351006, -0.505117, 1.979948, 15.006561, 131.349396, -231.941818
1715798095.410919, 1.223736, 4.627393, -14.245051, -0.167095, -0.606750, 2.390722, 15.632492, 131.464325, -232.174316
1715798095.444276, -0.539444, 4.518906, -14.425065, -0.051977, -0.495111, 2.425903, 16.873123, 131.553741, -232.001175
1715798095.477581, -0.877774, 4.931607, -14.305205, 0.345542, -0.799529, 2.448085, 17.840607, 131.331589, -231.981720
1715798095.511000, -1.520468, 5.188085, -13.320889, 0.393330, -0.726040, 2.189504, 19.671753, 131.759216, -232.520538
1715798095.544252, -0.595707, 4.960786, -13.654880, 0.592453, -0.652058, 2.220113, 20.009567, 131.847031, -232.261139
1715798095.577587, -0.885406, 4.958841, -12.735357, 0.657233, -0.903322, 2.239219, 21.007614, 131.829987, -232.360886
1715798095.610995, -1.705270, 5.076605, -13.229760, 0.685343, -0.774182, 2.054072, 22.231461, 132.102493, -232.788544
1715798095.644249, -2.278532, 4.601955, -13.602956, 1.062873, -0.830238, 1.807791, 22.777313, 132.342209, -232.803391
1715798095.677552, -2.250101, 4.820875, -11.964275, 1.261789, -0.981813, 1.641189, 23.949432, 132.649612, -233.322540
1715798095.710964, -2.888604, 4.412364, -11.132589, 1.361635, -0.526494, 1.184675, 25.001358, 133.366165, -233.851334
1715798095.744303, -2.674473, 3.978565, -10.386795, 1.269866, -0.580042, 1.090863, 25.224014, 133.648254, -233.908066
1715798095.777677, -3.545064, 4.002956, -10.200646, 0.915590, -0.152267, 0.963789, 26.215027, 133.939926, -234.666672
1715798095.810952, -5.110274, 3.819201, -12.132168, 0.854728, -0.206859, 0.753043, 26.583847, 134.331848, -234.817734
1715798095.844281, -5.957672, 4.102016, -12.697349, 1.263251, 0.211474, 0.270410, 27.203629, 134.591171, -235.023376
1715798095.877588, -6.350021, 3.972280, -12.296470, 1.879604, 0.102141, -0.292090, 26.835556, 135.122025, -235.159210
1715798095.911023, -5.378873, 3.466056, -8.572589, 2.005642, -0.590168, -0.771171, 26.627487, 136.573288, -236.067841
1715798095.944257, -4.209755, 2.503736, -6.445939, 1.750324, -0.739689, -1.173133, 26.814957, 137.906937, -237.294754
1715798095.977653, -4.098574, 1.957260, -5.306000, 1.381078, -0.808320, -1.380487, 26.636093, 138.960632, -237.527786
1715798096.010924, -4.058621, 0.982072, -4.595670, 1.254041, -0.904555, -1.645992, 26.488281, 140.048599, -238.622910
1715798096.044254, -3.706224, 0.882563, -3.987693, 1.096331, -1.297846, -1.965037, 25.556152, 141.204147, -239.925980
1715798096.077591, -2.876633, 0.639102, -3.028964, 0.783277, -1.543072, -2.031460, 25.418427, 141.793030, -240.162674
1715798096.110945, -2.008436, -0.163105, -2.594566, 0.420950, -1.340626, -2.100395, 24.543732, 143.043243, -241.310944
1715798096.144261, -1.626411, -0.641646, -3.086724, 0.007283, -1.072342, -2.043814, 23.800522, 143.486145, -241.499969
1715798096.177561, -1.662474, -1.089511, -3.623026, -0.202087, -0.960303, -2.102756, 22.600571, 143.933243, -241.896393
1715798096.211097, -1.249324, -1.441309, -3.907636, -0.383286, -0.952925, -2.096276, 22.137299, 143.911606, -242.047638
1715798096.244264, -0.919673, -1.764826, -4.229058, -0.494707, -0.823211, -2.194518, 21.276459, 144.406830, -241.662704
1715798096.277641, 0.455497, -1.968483, -4.224569, -0.574606, -0.908995, -2.063123, 19.959351, 144.373718, -240.983017
1715798096.310926, 1.120935, -1.352125, -4.248212, -0.748045, -0.976200, -1.933136, 19.408417, 143.939316, -241.269623
1715798096.344244, 1.820042, -1.047763, -4.626944, -1.153173, -1.135067, -1.829552, 18.965942, 143.850082, -240.062424
1715798096.377634, 3.189825, -0.747589, -6.443844, -1.085133, -1.309865, -1.557684, 18.801041, 143.413925, -239.504684
1715798096.410893, 4.159925, -0.253336, -7.567772, -0.983521, -1.628127, -1.159227, 18.602982, 143.195801, -238.953110
1715798096.444374, 5.347599, 0.279224, -6.239140, -1.518113, -1.250433, -1.009030, 18.676300, 142.606903, -238.188080
1715798096.477594, 6.676830, -0.328604, -8.159140, -2.038449, 0.902078, -0.916624, 18.225906, 141.846802, -237.222855
1715798096.510102, 6.222829, -1.148768, -11.188703, -2.126054, 0.734118, -0.522462, 17.189621, 140.784073, -235.210083
1715798096.544256, 5.207389, -1.430984, -13.356952, -2.038582, -0.090729, -0.029749, 16.705078, 139.929230, -234.489502
1715798096.577640, 4.347571, -1.370381, -14.350695, -1.844698, 0.961655, 0.276428, 16.228836, 138.472656, -233.401260
1715798096.610975, 2.927061, -1.110610, -15.374665, -1.636424, 1.199135, 0.340157, 14.935181, 136.998764, -233.069122
1715798096.644285, 3.508553, -0.901716, -15.260791, -1.469062, 0.325123, 0.676537, 14.333710, 136.474319, -232.573486
1715798096.677621, 2.863016, -0.084845, -14.445565, -1.313105, 0.412481, 1.256138, 14.634125, 135.528076, -232.328705
1715798096.710994, 1.973271, 1.211167, -14.068479, -1.375447, 0.731989, 1.204513, 14.228333, 134.361160, -232.057709
1715798096.744268, 2.737021, 1.670853, -15.958551, -0.945588, 0.305694, 1.443547, 14.112350, 133.806747, -232.389938
1715798096.777595, 2.444031, 3.018340, -14.025383, -0.695518, -0.301618, 1.827817, 14.238953, 133.698044, -232.515320
1715798096.810951, 1.043872, 3.419967, -13.363536, -0.676925, 0.188901, 1.650138, 15.233749, 133.391907, -232.710739
1715798096.844244, 1.814954, 3.949385, -12.505215, -0.526336, 1.609604, 1.389172, 14.748062, 133.030640, -232.440720
1715798096.877694, -0.890942, 3.326444, -13.906271, -0.799495, 1.582109, 1.339956, 14.317963, 132.848221, -232.582199
1715798096.910935, 0.359878, 3.140893, -16.195876, 0.222247, -0.102877, 1.623942, 14.173676, 132.575958, -232.461655
1715798096.944266, 2.194136, 4.243274, -13.387179, 0.606236, -0.911691, 2.118162, 15.079590, 133.312317, -232.587631
1715798096.977600, 0.834828, 4.469376, -11.315147, 0.026828, -0.354045, 2.304128, 15.759277, 133.548141, -232.252762
1715798097.010935, -0.128838, 4.089446, -13.005752, -0.382231, -0.219911, 2.353547, 16.625549, 133.578735, -232.373413
1715798097.044268, 0.182109, 4.337246, -14.908843, 0.065211, -0.586164, 2.572609, 17.779160, 133.277237, -232.107773
1715798097.077618, -1.294066, 5.022137, -14.182802, 0.472164, -0.692283, 2.428970, 19.117020, 133.478546, -232.186966
1715798097.110907, -1.177199, 4.879084, -13.897742, 0.607271, -0.627969, 2.269042, 19.738754, 133.763107, -232.498657
1715798097.144271, -1.290774, 4.869058, -13.809755, 0.740513, -0.388780, 2.157833, 20.819397, 133.786179, -232.629166
1715798097.177625, -2.137573, 4.582951, -13.411869, 0.938542, -0.365276, 1.922861, 21.715759, 134.072998, -232.748596
1715798097.210941, -2.362179, 4.222175, -12.763190, 1.204741, -0.452782, 1.532325, 22.408569, 134.542511, -233.079193
1715798097.244271, -1.777246, 3.374478, -11.939884, 1.076809, -0.509178, 1.553178, 23.181808, 134.998215, -233.803680
1715798097.277685, -3.560028, 2.868104, -12.101492, 1.150662, -0.808164, 1.238610, 24.257568, 135.431061, -234.197876
1715798097.310910, -3.986346, 1.978209, -10.757896, 1.085110, -0.872981, 0.821212, 24.769135, 135.478973, -234.416763
1715798097.343920, -5.350442, 1.369184, -10.499023, 1.003295, -0.491591, 0.302993, 25.703491, 135.971146, -234.998642
1715798097.377631, -5.525518, 1.126173, -10.844088, 1.356706, -1.095665, -0.187052, 26.278549, 136.301086, -235.929657
1715798097.411069, -4.258537, 1.410484, -9.435848, 1.512722, -1.133972, -0.728514, 26.862350, 137.690765, -237.093231
1715798097.444296, -3.444508, 1.337760, -8.407538, 1.680407, -0.894761, -1.067250, 26.481903, 138.323029, -237.569290
1715798097.477609, -3.044377, 1.415422, -6.757784, 1.298253, -1.647717, -1.134463, 26.528320, 139.321198, -238.934433
1715798097.511052, -2.604742, 0.737564, -5.331588, 0.892249, -1.376744, -1.150615, 27.156235, 140.722061, -240.015656
1715798097.543570, -4.202871, 0.213533, -4.308216, 0.893303, -0.571959, -1.805781, 27.320038, 141.043900, -240.444519
1715798097.577611, -3.560926, -0.147692, -3.368642, 0.897542, -0.587894, -2.058826, 25.954865, 142.063217, -241.085083
1715798097.611018, -3.259556, -0.639401, -3.276764, 0.650096, -0.566134, -2.194087, 24.455124, 142.851212, -242.119888
1715798097.644287, -2.866608, -0.889147, -3.443161, 0.564404, -1.048191, -2.386788, 24.118225, 143.470886, -242.278961
1715798097.677650, -1.034744, -1.447145, -3.007417, 0.273954, -1.295627, -2.110063, 22.795609, 144.556458, -242.739502
1715798097.711045, -0.707038, -1.694197, -1.888726, -0.105931, -0.386523, -2.109292, 22.090698, 144.755600, -242.738449
1715798097.744272, -0.179565, -2.065747, -2.782212, -0.572366, -0.449129, -2.081105, 20.474030, 145.089920, -242.682983
1715798097.777610, 0.713023, -2.559102, -4.060117, -0.579403, -1.230438, -1.904464, 19.896255, 144.751892, -242.315079
1715798097.810942, 1.049708, -1.691653, -4.233098, -0.764379, -1.590596, -1.898045, 18.832886, 144.824753, -241.766693
1715798097.844253, 2.309806, -1.825579, -5.413290, -1.083369, -1.378698, -2.064770, 18.212082, 144.314011, -240.894501
1715798097.877641, 4.591630, -2.023699, -6.621763, -0.936721, -0.937046, -1.635894, 18.183304, 144.133316, -240.375443
1715798097.910930, 4.910208, -1.905336, -6.780529, -1.055100, -0.661808, -1.284860, 17.542786, 143.587204, -239.766998
1715798097.944280, 5.206640, -1.212214, -7.298724, -1.359510, -0.107773, -1.329242, 17.162766, 143.262405, -238.533279
1715798097.977641, 6.733243, -1.544110, -9.307459, -1.660306, -0.193551, -0.728010, 16.640671, 142.457092, -237.386536
1715798098.010948, 6.803723, -1.431433, -10.743381, -1.517423, 0.451552, -0.380188, 16.483948, 142.311981, -236.486084
1715798098.043890, 6.732196, -1.128866, -11.348067, -1.469296, 1.521789, -0.414944, 15.405991, 140.959900, -235.456619
1715798098.077116, 6.094440, -1.171214, -12.852523, -1.537711, 0.749734, 0.139900, 14.025055, 139.757370, -234.413559
1715798098.110906, 4.526238, -1.609203, -12.642133, -1.260767, 0.603777, 0.248751, 13.783859, 139.533813, -234.267426
1715798098.144270, 4.039766, -1.034145, -11.186907, -0.995236, 0.644502, 0.344589, 12.826782, 138.879669, -234.012070
1715798098.177598, 3.224541, -0.736816, -10.508899, -1.375128, 0.154134, 0.633067, 12.580521, 138.006424, -233.884094
1715798098.211060, 2.673725, -0.681001, -11.082460, -1.339539, -0.083849, 0.619424, 12.388672, 137.437408, -233.624023
1715798098.244294, 3.297115, 0.113276, -11.732636, -1.306718, -0.088958, 0.757668, 12.754242, 136.791077, -233.524429
1715798098.277625, 3.880103, 1.582418, -12.623578, -1.459997, 0.114389, 0.937119, 12.989090, 135.726532, -233.214462
1715798098.311014, 4.969465, 2.513762, -14.006828, -1.214923, 0.360931, 0.812686, 13.009903, 135.045700, -233.129333
1715798098.344271, 6.541857, 3.238008, -14.817714, -1.190137, -0.085799, 1.408255, 12.896988, 134.600525, -232.941238
1715798098.377600, 5.068076, 3.620183, -14.979921, -1.116421, -0.473707, 2.243907, 13.946411, 133.925095, -233.121933
1715798098.410959, 2.566285, 4.117428, -15.112051, -0.822454, 0.141380, 2.335619, 14.910461, 133.556259, -232.930939
1715798098.444314, 2.344073, 4.697124, -14.278271, -0.696933, -0.118027, 2.447897, 15.158615, 133.489685, -232.605026
1715798098.477605, 1.022474, 4.919187, -14.618397, -0.611398, -0.347422, 2.791254, 16.248764, 133.164047, -232.602951
1715798098.511030, 0.733224, 5.349544, -14.544925, -0.252561, -0.074733, 2.653805, 17.511307, 133.024780, -232.321320
1715798098.544305, 0.450260, 5.993435, -14.627375, -0.286101, -0.235219, 2.790698, 17.506287, 132.783142, -232.249786
1715798098.577618, -0.524031, 6.352416, -15.940744, -0.014229, 0.167678, 2.664544, 18.455109, 132.796280, -232.069305
1715798098.610951, -0.820313, 6.452523, -15.173702, 0.298386, 0.517294, 2.409500, 19.080093, 132.592117, -232.130096
1715798098.644296, -0.220117, 6.049699, -15.318551, 0.276987, -0.003470, 2.666475, 19.711472, 132.905899, -231.885040
1715798098.677591, -4.052037, 4.607342, -15.327080, 0.585734, -0.491338, 2.486600, 20.177963, 132.788620, -232.025314
1715798098.710217, -4.741716, 3.394529, -13.563751, 1.413880, -0.075794, 1.361529, 21.118698, 133.317291, -232.126877
1715798098.744347, -4.141520, 2.809745, -11.083957, 1.268646, -0.169678, 0.871886, 21.161057, 133.796616, -232.511963
1715798098.777694, -3.374627, 2.043451, -11.565490, 1.328603, -0.886813, 0.691083, 21.671799, 134.433197, -232.445312
1715798098.810920, -4.108151, 2.613870, -11.301380, 1.395068, -1.342037, 0.030190, 22.764328, 135.240250, -232.972809
1715798098.844321, -3.345897, 2.417395, -12.155960, 1.657446, -1.631037, -0.426712, 23.689178, 136.221741, -233.860535
1715798098.877629, -2.494908, 3.033154, -10.996419, 1.901123, -1.436387, -0.717646, 24.077026, 136.775894, -234.702515
1715798098.911053, -2.585289, 3.193117, -9.563190, 1.832928, -1.760096, -0.877892, 24.577560, 138.103226, -235.934891
1715798098.944299, -3.139846, 2.719813, -8.564808, 1.771726, -1.909698, -1.290551, 25.334412, 139.712616, -237.309387
1715798098.977608, -3.148974, 2.175731, -7.366659, 1.926112, -1.527429, -1.729894, 25.636871, 141.049088, -239.261887
1715798099.011020, -2.676717, 1.764826, -4.487931, 1.816506, -1.489583, -1.839932, 25.109344, 141.733994, -240.060059
1715798099.044284, -2.494309, 0.999729, -2.966715, 1.197910, -1.718162, -2.056042, 24.804337, 142.851257, -241.253922
1715798099.077613, -1.552789, 0.403124, -2.250550, 0.790311, -1.528254, -2.078353, 24.071869, 144.134018, -242.996704
1715798099.110948, -0.852785, -0.379182, -2.681207, 0.528797, -1.412512, -2.115497, 23.661575, 144.605209, -242.935913
1715798099.144332, -0.121955, -0.628777, -2.211345, 0.052135, -0.832868, -2.112072, 22.159531, 145.040558, -243.761292
1715798099.177628, 0.117166, -1.582867, -2.488024, -0.177349, -0.267497, -2.315055, 21.073257, 145.672913, -243.716156
1715798099.210974, 1.981950, -2.908356, -2.951602, -0.322027, -0.860667, -1.962333, 19.755707, 145.765594, -243.534744
1715798099.244346, 2.517353, -3.115904, -2.313248, -0.702143, -1.012924, -1.643030, 19.080643, 145.495865, -243.301895
1715798099.277660, 2.947711, -2.538153, -2.699612, -1.052387, -0.193178, -1.763259, 18.235184, 145.603195, -242.696579
1715798099.310949, 4.185214, -3.361309, -3.899257, -1.193255, 0.011421, -1.635574, 16.944992, 145.075516, -241.701813
1715798099.344338, 5.081843, -2.714875, -5.621137, -1.484611, -0.817550, -1.043408, 16.832077, 144.638809, -241.160248
1715798099.377652, 4.948366, -2.463634, -6.527342, -1.754887, -0.451159, -0.719755, 16.883148, 143.867889, -239.800293
1715798099.410961, 4.451419, -2.233042, -8.438513, -1.549896, 0.295393, -0.741616, 16.377197, 142.947922, -238.429260
1715798099.444356, 4.354155, -2.228852, -8.851214, -1.398007, 0.205090, -0.571285, 16.135651, 142.271790, -237.939072
1715798099.477626, 3.629759, -1.936161, -9.434202, -1.558840, -0.122321, -0.413310, 15.798111, 141.668732, -236.833099
1715798099.511022, 3.766229, -1.598279, -10.285790, -1.449727, 0.270222, -0.394456, 15.150208, 140.649475, -235.633667
1715798099.544249, 4.350115, -1.438167, -11.317541, -1.552965, 0.616567, -0.227498, 14.397781, 139.595001, -234.710236
1715798099.577711, 3.987693, -0.999280, -12.223896, -1.286589, 0.508952, -0.077842, 13.938782, 139.251007, -234.254395
1715798099.610968, 4.190751, -0.300921, -12.073061, -1.423880, 0.008222, 0.110958, 13.575073, 138.121872, -233.814743
1715798099.644299, 3.884891, -0.604686, -12.778453, -1.299027, 0.119103, 0.282480, 13.304153, 137.399338, -233.146896
1715798099.677624, 3.807379, -0.146046, -12.192622, -1.177105, 0.358367, 0.336404, 13.140945, 137.052689, -233.238113
1715798099.711073, 4.012682, 0.411054, -12.509853, -1.289705, 0.440687, 0.565157, 12.569473, 136.361053, -232.861832
1715798099.744299, 3.560477, 0.696563, -12.818855, -1.060504, 0.286622, 0.660144, 12.760895, 135.381821, -232.650818
1715798099.777637, 3.386449, 2.237232, -12.002881, -0.796986, 0.048246, 0.677977, 12.648727, 135.309784, -233.135284
1715798099.810979, 3.865289, 2.083853, -12.619987, -1.145308, -0.478937, 1.094097, 13.048264, 134.746460, -232.809814
1715798099.844359, 3.132514, 2.545485, -13.459304, -0.621039, -0.223235, 1.094930, 13.480469, 134.200073, -232.909988
1715798099.877654, 3.762039, 3.415029, -11.926117, -0.399160, -0.079271, 1.124653, 14.159546, 134.016296, -232.882736
1715798099.910968, 3.683479, 3.533692, -12.583774, -0.349739, -0.154849, 1.480483, 14.527710, 134.158890, -232.841400
1715798099.944324, 2.857480, 4.242226, -12.140099, -0.497016, -0.196458, 1.521022, 14.958252, 133.771774, -232.667511
1715798099.977638, 3.724929, 3.943998, -13.868413, -0.573001, -0.154422, 1.899440, 15.827255, 133.548035, -232.539307
1715798100.011066, 2.500145, 4.572177, -15.305383, -0.137588, -0.165906, 2.454198, 15.852280, 133.445602, -232.548233
1715798100.044298, 0.742951, 4.955399, -17.181988, 0.364183, -0.492064, 2.611527, 17.028091, 133.451538, -232.439407
1715798100.077695, 0.373795, 4.201974, -15.234156, 0.253102, -0.398870, 2.730893, 18.245987, 133.999619, -232.731979
1715798100.110989, 0.225354, 3.878008, -15.699379, -0.277963, -0.138220, 2.861924, 19.192703, 133.665939, -232.842422
1715798100.144319, -1.169568, 3.688866, -16.957083, -0.031645, -0.404349, 2.704892, 19.777634, 133.454498, -232.729767
1715798100.177722, -0.701052, 3.185485, -16.422577, 0.503408, -0.998426, 2.628014, 21.156342, 133.274216, -232.670120
1715798100.211052, -2.186804, 3.944298, -14.520384, 0.992788, -1.223840, 2.259840, 23.071472, 133.539520, -232.748505
1715798100.244332, -3.930830, 4.211101, -13.334656, 1.266069, -0.810129, 1.546354, 23.706284, 133.531052, -233.086411
1715798100.277686, -3.468001, 4.520253, -12.297069, 1.466660, -0.792297, 1.254170, 24.473907, 133.985260, -233.857376
1715798100.310970, -4.604948, 4.964527, -10.713454, 1.209853, -0.772193, 0.727304, 25.764389, 134.479752, -234.405151
1715798100.344335, -5.553800, 4.665401, -11.283424, 1.620066, -0.534521, -0.049334, 26.147308, 134.773819, -234.738922
1715798100.377661, -4.031686, 4.087351, -8.445397, 1.369185, -1.297851, -0.063086, 26.673111, 135.443481, -235.499496
1715798100.411046, -5.807286, 3.406201, -7.745691, 0.963271, -1.090473, -0.620733, 27.205063, 136.571274, -236.581024
1715798100.444339, -5.076007, 2.901772, -7.125443, 1.579447, -0.703034, -1.262065, 27.210403, 137.541229, -237.361145
1715798100.477701, -4.686350, 2.986617, -4.123115, 1.409024, -1.391526, -1.443341, 27.236816, 138.344299, -237.920242
1715798100.511033, -4.559009, 2.151041, -2.851345, 1.288686, -1.303476, -1.889920, 27.159561, 139.562943, -239.037186
1715798100.544325, -3.999813, 1.850119, -1.514781, 0.768331, -1.480212, -2.094688, 26.418579, 141.107330, -240.233017
1715798100.577396, -3.028964, 1.144728, -1.607258, 0.259231, -1.297504, -2.218278, 26.515625, 141.379974, -240.605896
1715798100.611088, -2.683152, 0.040253, -2.900575, 0.316708, -0.382238, -2.485307, 25.574097, 142.284393, -241.020004
1715798100.644405, -1.886332, -0.471957, -2.582595, 0.014324, -0.693732, -2.539088, 23.890533, 143.140335, -241.444809
1715798100.677742, -1.427094, -1.084723, -2.912546, -0.352420, -0.972610, -2.515533, 23.401871, 143.206772, -241.303131
1715798100.710956, -0.386065, -1.578527, -3.547010, -0.632656, -0.080264, -2.694991, 21.914322, 143.967285, -240.911163
1715798100.744416, 0.134375, -1.688660, -4.908862, -0.852120, -0.628507, -2.525532, 19.927872, 143.516861, -240.099380
1715798100.777786, 1.735048, -1.438466, -5.661688, -1.133410, -1.098743, -2.253506, 18.608292, 143.562210, -239.571259
1715798100.811110, 2.490568, -0.716914, -6.688651, -1.587838, -0.745032, -2.170702, 17.916901, 143.095276, -239.233795
1715798100.844453, 3.817106, -0.319327, -8.993669, -1.585260, -1.219059, -1.838378, 17.582108, 142.302460, -238.014267
1715798100.877603, 5.273229, 0.073322, -10.209175, -1.436923, -0.038825, -1.493681, 17.025360, 141.311172, -236.571548
1715798100.911163, 5.629516, -0.648829, -9.667637, -0.804051, 0.838599, -1.343677, 16.514801, 140.962143, -236.293167
1715798100.944404, 5.607669, 0.098462, -8.909273, -1.206629, -0.663605, -0.670109, 16.062698, 140.256058, -235.522644
1715798100.977739, 4.955848, 0.021997, -9.264962, -1.126199, 0.159108, -0.675809, 16.136429, 139.597488, -234.621597
1715798101.010831, 6.322937, -0.651672, -9.297134, -0.892907, 0.934252, -0.472070, 15.445770, 139.062592, -234.518707
1715798101.044041, 4.564246, 0.351798, -9.627235, -1.342193, -0.105378, 0.266820, 14.670578, 138.661133, -233.415421
1715798101.077240, 2.973299, -0.247501, -10.519673, -0.981541, 0.854097, -0.203571, 14.567703, 137.549957, -232.759033
1715798101.110173, 4.332458, 0.250942, -9.219622, -1.088665, 0.697885, -0.029878, 13.547775, 137.108948, -232.468140
1715798101.144430, 2.596661, 0.137517, -10.166080, -1.771708, -0.063325, 0.415039, 13.396484, 136.245758, -232.435211
1715798101.177764, 2.740613, -0.231040, -10.584017, -1.479470, 0.733662, 0.028445, 12.907852, 135.223572, -232.137604
1715798101.211024, 3.934870, 1.031153, -10.805481, -1.938200, 0.202435, 0.370340, 12.293839, 133.886169, -231.919617
1715798101.244309, 4.223821, 1.085621, -14.373590, -1.625974, -0.260561, 0.665660, 12.237839, 133.328033, -231.633865
1715798101.277637, 5.424662, 2.923320, -14.124144, -1.068855, -0.914122, 1.164624, 12.460587, 132.498718, -231.662262
1715798101.311101, 4.751892, 3.898209, -14.692018, -1.088793, -0.917115, 1.555621, 13.279510, 131.627472, -231.581696
1715798101.344365, 3.729717, 4.467580, -15.490934, -0.610036, -0.498361, 1.694712, 14.242233, 131.427063, -231.664963
1715798101.377690, 2.963124, 5.029619, -14.968998, -0.552145, -0.703599, 2.077488, 14.698959, 131.288391, -232.014633
1715798101.410966, 1.638831, 5.200655, -15.144074, -0.225165, -0.786313, 2.139380, 16.380219, 130.848053, -231.726471
1715798101.444378, 1.839944, 5.628170, -15.157541, -0.159526, -0.909080, 2.400756, 17.314270, 130.737640, -231.651688
1715798101.477652, 0.877026, 6.586898, -15.051448, 0.035429, -0.463413, 2.561932, 18.021317, 130.697525, -231.608353
1715798101.511071, -0.320524, 7.034464, -15.066861, 0.101658, -0.886524, 2.691541, 18.980453, 130.804886, -231.705490
1715798101.543631, -0.755820, 7.413346, -14.427010, 0.383110, -0.121273, 2.379249, 19.906601, 130.698029, -231.834412
1715798101.577644, -1.315913, 6.867019, -13.639617, 0.466662, -0.218148, 2.371026, 20.153351, 130.730484, -232.026550
1715798101.611088, -2.488473, 6.375160, -13.222876, 0.797683, -1.092387, 2.282405, 21.523392, 130.729156, -231.922668
1715798101.644360, -3.330035, 5.970241, -12.490251, 1.153331, -0.124119, 1.622944, 22.347427, 131.575226, -232.085266
1715798101.677670, -2.497152, 5.396082, -11.209503, 1.345725, 0.345641, 1.422874, 22.782120, 131.859344, -232.361725
1715798101.711048, -3.085378, 5.370194, -10.468347, 1.250979, -0.532014, 1.279562, 22.948807, 132.356857, -232.107361
1715798101.744454, -3.233669, 4.164265, -10.628759, 1.218888, -0.444587, 1.063697, 23.643280, 133.042953, -232.591461
1715798101.777749, -3.952827, 3.731663, -10.633697, 1.313310, -0.673045, 0.888503, 24.308487, 133.608627, -233.150665
1715798101.810962, -4.108749, 3.206135, -11.011532, 1.391555, -0.747089, 0.377801, 24.888535, 134.164001, -233.580856
1715798101.844419, -4.113238, 3.358317, -10.868329, 1.736889, -0.413630, 0.045647, 25.322815, 134.805496, -234.071487
1715798101.877782, -4.660014, 3.657891, -9.604639, 1.560206, -1.236791, -0.225750, 25.681946, 136.107422, -235.238647
1715798101.911051, -4.434660, 2.803012, -9.103204, 1.445759, -1.114764, -0.553578, 26.102737, 136.380997, -235.725784
1715798101.944396, -4.746954, 2.008885, -9.009381, 1.529092, -0.486548, -0.977592, 26.635178, 137.508667, -236.715027
1715798101.977779, -5.523124, 1.929727, -8.188918, 1.698642, -1.062530, -1.287675, 26.202423, 138.700180, -237.893631
1715798102.011015, -5.291186, 1.670554, -5.355530, 1.668893, -1.658889, -1.546379, 26.397629, 140.143860, -239.340256
1715798102.044340, -4.925621, 1.304690, -3.267636, 1.566754, -0.822457, -2.169205, 26.116058, 140.601166, -239.879242
1715798102.077806, -4.020912, 0.960973, -1.815254, 1.092342, -1.197308, -2.285844, 24.939819, 142.435074, -241.279144
1715798102.110971, -2.745251, 0.288352, -1.216703, 0.455786, -1.330552, -2.284407, 24.319763, 143.330490, -241.806610
1715798102.144340, -2.170344, -0.184204, -2.186804, 0.132111, -0.590304, -2.370784, 23.691254, 143.596359, -242.346008
1715798102.177771, -1.514931, -0.806696, -1.846079, -0.082828, -0.110047, -2.427256, 22.090942, 144.200577, -242.506226
1715798102.211012, -1.638232, -0.612317, -2.047491, -0.382786, -0.503208, -2.608037, 20.465469, 144.492035, -242.301880
1715798102.243464, 0.457143, -1.056741, -2.718616, -0.659141, -1.189579, -2.639072, 19.666061, 144.666245, -241.898590
1715798102.277691, 2.627038, -1.115399, -3.089119, -1.087297, -0.877611, -2.382810, 18.393616, 144.392349, -241.385986
1715798102.311034, 3.001281, -0.647183, -4.469226, -1.517424, -0.656718, -2.089629, 17.279160, 143.912491, -240.466507
1715798102.344313, 4.359542, -0.887650, -6.992266, -1.615412, -0.047058, -1.930233, 15.958191, 143.234268, -239.093094
1715798102.377676, 5.170727, -0.760309, -8.049755, -1.389586, 0.305627, -1.608703, 15.246277, 142.743729, -238.536758
1715798102.411008, 5.541679, -0.470012, -8.682423, -1.372472, -0.588228, -1.118314, 14.571793, 141.960190, -237.199600
1715798102.444417, 6.363788, 0.190040, -8.558672, -1.463780, -0.543935, -0.960908, 14.558273, 140.927948, -236.018204
1715798102.477675, 7.682544, 0.404919, -9.982175, -1.596428, -0.407885, -0.278706, 14.396347, 140.345001, -235.353409
1715798102.511087, 6.483199, 0.480636, -12.442666, -1.359153, -0.844799, 0.067781, 14.672272, 139.310913, -234.160278
1715798102.544340, 6.908768, 0.763002, -12.805687, -1.194628, -0.286707, 0.240807, 14.818802, 138.350143, -233.308990
1715798102.577737, 5.026926, 0.175375, -12.751817, -1.220569, 0.512130, 0.531386, 14.259583, 137.468903, -232.873245
1715798102.611011, 4.405930, -0.189591, -12.497733, -1.193144, 0.322713, 0.811580, 14.011887, 137.267303, -232.596313
1715798102.644369, 2.347515, 0.316184, -12.502371, -1.434895, -0.078933, 0.919836, 14.262558, 136.100128, -232.529816
1715798102.677754, 2.047641, 0.018555, -12.917616, -1.385789, 0.256969, 0.873944, 14.025803, 135.276108, -231.992416
1715798102.711104, 1.848773, 0.299574, -12.531102, -1.403706, 0.416665, 0.970353, 13.932129, 134.901443, -231.794662
1715798102.744326, 1.634342, 0.426467, -13.356503, -1.162569, 0.176551, 1.077403, 13.938568, 134.074127, -231.598053
1715798102.777673, 1.798494, 1.973720, -13.109601, -1.285727, -0.135369, 1.150450, 14.001266, 133.257858, -231.420578
1715798102.811025, 2.397194, 2.350956, -14.663138, -0.881923, 0.041771, 1.255012, 14.213593, 133.122162, -231.587479
1715798102.844334, 3.237709, 3.243844, -13.918392, -0.688429, -0.257198, 1.616948, 14.684738, 132.589401, -231.955032
1715798102.877656, 2.284966, 3.827281, -14.135666, -0.615040, -0.683957, 1.985103, 15.402252, 132.082047, -231.706467
1715798102.911014, 2.102857, 4.296993, -13.770550, -0.284803, -0.461136, 1.995953, 15.977554, 131.807571, -231.945435
1715798102.944353, 2.437148, 4.008791, -13.924976, -0.210069, -0.789792, 2.421755, 17.083679, 131.662140, -231.919968
1715798102.976841, -0.322469, 4.819827, -14.750826, -0.073593, -0.904692, 2.606245, 18.387665, 131.503860, -231.788361
1715798103.011068, -1.115997, 4.749946, -15.415965, 0.209952, -1.371539, 2.199822, 19.932022, 131.433746, -232.050674
1715798103.044457, 0.525228, 5.866692, -15.379753, 0.484084, -0.975922, 2.291341, 20.394836, 131.382095, -231.948929
1715798103.077686, -1.162385, 6.257845, -15.802030, 0.630693, -0.959429, 2.371493, 22.055328, 131.764557, -232.330460
1715798103.111015, -2.752284, 6.391022, -15.058780, 1.336278, -1.305693, 1.881776, 23.481796, 131.706085, -233.076172
1715798103.144457, -2.724452, 6.335507, -12.521824, 1.291404, -0.626019, 1.521560, 24.191910, 131.980637, -233.076813
1715798103.177650, -3.867833, 5.840655, -11.911901, 1.334268, -0.295014, 1.243590, 25.039001, 132.461823, -233.436264
1715798103.211024, -4.360739, 5.266645, -10.860548, 1.498037, -0.470911, 0.885108, 25.994370, 133.222473, -233.998932
1715798103.244472, -4.468328, 4.827608, -9.571569, 1.431438, 0.390444, 0.639913, 26.226379, 134.002396, -234.421219
1715798103.277760, -5.446360, 4.428974, -9.745747, 1.571956, -0.073729, 0.411055, 26.122559, 134.349823, -234.576599
1715798103.310992, -5.576245, 4.497209, -8.984840, 1.345245, -0.947613, -0.003883, 26.765182, 135.013535, -235.078705
1715798103.344435, -5.651064, 3.570054, -8.920197, 1.327576, -0.203251, -0.367074, 27.118271, 136.120590, -235.696823
1715798103.377692, -5.837064, 2.524087, -9.204209, 1.575592, -0.691746, -0.647068, 27.041275, 136.570648, -236.652359
1715798103.411113, -5.552303, 2.012326, -7.238121, 1.618597, -1.537450, -1.044571, 27.261398, 137.726501, -237.673080
1715798103.444356, -4.676474, 1.339855, -6.116736, 1.558496, -0.820954, -1.414330, 27.592529, 138.963638, -238.743210
1715798103.477706, -5.007473, 1.160140, -4.989067, 1.564932, -0.963019, -1.698087, 27.381119, 140.742065, -239.939270
1715798103.511109, -3.503615, 0.332794, -3.007566, 1.200719, -1.575545, -1.743067, 26.863876, 141.122620, -240.701553
1715798103.544405, -3.413982, -0.010475, -2.307561, 0.732688, -0.439761, -1.970500, 26.328857, 142.269867, -241.684692
1715798103.577659, -3.368342, -0.666187, -2.757222, 0.413697, -0.600964, -2.015707, 25.256149, 143.282516, -242.024628
1715798103.611024, -2.720711, -1.114351, -3.111864, 0.142686, -0.928218, -2.031414, 25.214127, 143.599457, -242.420914
1715798103.644403, -2.499397, -1.340753, -2.684648, -0.044830, -0.447086, -2.235338, 23.606415, 144.108322, -242.456680
1715798103.677769, -1.542764, -1.289876, -2.423980, -0.385716, -0.633575, -2.242296, 22.203476, 144.432281, -242.242508
1715798103.711067, -0.118962, -1.593940, -3.262998, -0.732409, -0.732102, -2.217795, 21.246552, 144.581619, -242.163162
1715798103.744468, 1.326687, -1.576133, -4.182221, -0.950412, -0.643209, -1.977315, 20.365143, 144.499115, -241.576065
1715798103.777774, 2.316091, -1.395969, -5.204845, -1.023826, -0.582502, -1.727656, 18.898346, 144.210526, -240.781998
1715798103.811028, 3.226336, -1.267281, -5.946299, -1.095037, -0.386329, -1.534761, 18.322769, 143.920685, -240.009842
1715798103.844435, 3.735104, -0.951695, -6.392369, -1.311901, 0.125866, -1.459818, 17.844589, 143.709229, -239.305740
1715798103.877769, 5.458630, -1.829918, -7.889493, -1.070441, -0.245243, -1.028867, 17.233215, 143.056427, -238.367508
1715798103.911029, 5.361665, -0.801160, -7.372495, -1.327805, -0.439509, -0.625135, 16.655853, 142.158508, -237.470291
1715798103.944361, 6.191705, -1.176750, -8.560917, -1.505052, 0.595692, -0.595854, 16.688904, 141.627853, -237.077682
1715798103.977770, 6.775142, -0.899921, -9.269451, -1.846091, 0.948196, 0.141925, 16.265152, 140.639496, -235.524078
1715798104.011032, 5.794567, -1.014842, -10.803236, -1.968930, 1.749398, 0.346418, 14.814819, 139.731400, -234.507996
1715798104.044366, 5.771373, -0.994043, -12.325350, -1.628755, 2.624491, 0.491489, 13.956787, 138.900116, -234.357056
1715798104.077800, 3.138948, -0.128688, -11.954249, -1.589620, 0.841795, 0.228252, 12.463028, 137.935226, -233.867249
1715798104.111032, 3.573346, -0.424672, -11.611429, -1.739845, -0.276959, 0.013046, 11.909805, 136.871567, -233.243927
1715798104.144407, 5.102942, -0.047136, -11.697620, -1.638157, 0.093165, 0.056347, 11.732285, 135.626312, -232.845245
1715798104.177698, 4.896591, 0.922217, -11.903821, -1.625452, 0.521873, 0.180004, 11.458786, 135.078476, -232.673294
1715798104.211079, 5.378125, 1.678934, -12.781595, -1.582541, -0.427865, 0.546195, 11.257523, 134.116318, -232.345383
1715798104.244340, 5.237316, 2.547281, -12.991537, -1.317850, -0.857679, 0.852540, 11.627243, 133.061920, -232.335709
1715798104.277723, 5.209932, 3.448249, -13.159281, -1.192117, -0.358598, 1.102544, 12.292053, 132.724854, -232.129639
1715798104.311033, 4.666000, 3.883545, -14.156615, -0.899141, -0.739146, 1.437816, 13.064865, 132.057312, -231.777481
1715798104.344353, 4.263475, 4.053084, -13.991415, -0.845436, -1.085234, 1.773722, 14.297745, 132.054382, -231.880753
1715798104.377680, 2.927959, 3.955072, -14.281563, -0.554645, -0.196474, 1.610609, 14.850754, 131.497467, -231.679657
1715798104.411058, 3.653103, 4.422988, -14.210036, -0.304557, -0.118926, 1.805430, 15.411270, 131.370483, -231.889893
1715798104.444369, 3.598036, 4.437653, -14.960169, -0.143354, -0.821862, 2.168739, 15.869675, 131.338745, -231.649826
1715798104.477698, 3.163489, 5.374085, -15.302989, 0.085335, -0.615430, 2.330004, 16.859283, 131.215439, -231.634872
1715798104.511056, 2.464382, 5.536591, -16.824953, 0.247868, -1.196260, 2.865587, 17.699921, 131.570877, -231.419159
1715798104.544398, 0.708085, 5.871031, -18.285416, 0.956002, -2.040451, 3.264534, 19.687057, 131.409714, -231.659607
1715798104.577762, -2.651578, 7.118859, -15.468488, 1.540066, -1.989412, 3.155703, 22.267578, 132.313736, -232.264114
1715798104.611076, -4.124611, 7.127239, -13.631537, 1.446096, -0.851951, 2.025140, 23.228668, 132.604874, -232.764297
1715798104.644445, -2.693477, 6.160281, -12.692860, 1.606912, -0.977352, 1.864707, 24.232178, 133.329239, -233.252319
1715798104.677672, -3.926341, 5.949890, -10.515633, 1.340454, -1.420050, 1.757107, 25.829544, 133.897247, -234.132370
1715798104.711035, -5.012860, 4.926968, -9.967510, 1.155670, -0.349552, 0.822616, 27.127747, 133.805756, -234.756561
1715798104.744396, -5.160552, 4.063110, -10.112210, 1.160654, -0.580477, 0.395289, 27.086487, 134.252060, -235.066223
1715798104.777723, -5.209184, 3.527258, -9.260173, 1.213936, -0.765461, -0.073639, 27.569778, 135.008575, -235.581146
1715798104.811027, -4.662857, 2.921375, -8.389432, 1.187249, -0.335249, -0.650299, 28.030365, 135.549332, -236.618439
1715798104.844374, -4.746355, 2.683152, -8.946832, 1.144560, -0.745069, -0.882257, 27.683456, 136.074860, -236.459503
1715798104.877681, -4.753238, 2.359186, -8.705916, 1.476519, -0.863426, -1.135628, 28.028168, 137.474960, -237.533325
1715798104.911149, -5.095310, 2.149694, -6.627001, 1.699898, -0.629578, -1.553798, 27.673416, 138.988251, -238.934616
1715798104.944426, -5.354931, 1.563414, -4.615871, 1.629335, -1.087614, -1.808640, 27.264267, 139.336929, -239.047668
1715798104.977797, -4.863222, 1.068562, -2.926014, 1.218061, -1.472308, -1.949443, 27.277603, 141.073380, -240.765015
1715798105.011037, -4.624999, 0.388010, -2.594417, 0.897693, -1.154568, -2.187292, 26.136093, 142.097198, -241.656342
1715798105.044294, -3.840299, -0.080655, -2.304120, 0.618905, -0.789469, -2.273783, 25.196167, 142.982635, -242.482330
1715798105.077553, -3.605368, -0.756418, -2.043601, 0.311124, -0.792998, -2.360053, 24.784866, 143.430573, -242.574051
1715798105.111071, -2.104803, -1.271770, -2.165705, 0.130152, -0.471003, -2.454330, 22.952133, 144.425186, -242.931488
1715798105.144429, -1.473332, -1.083526, -1.952023, -0.056682, -0.652646, -2.518193, 21.598907, 144.895752, -243.338867
1715798105.177711, -0.375441, -0.952443, -1.407641, -0.437962, -1.329281, -2.589189, 20.898178, 145.182861, -242.920944
1715798105.211046, 2.087594, -1.028160, -2.109741, -0.740534, -1.728352, -2.488435, 19.436157, 145.271484, -242.394897
1715798105.244422, 4.004751, -0.585831, -2.405873, -1.302287, -0.717373, -2.254506, 18.129410, 145.099091, -241.733109
1715798105.277711, 5.038897, -0.784999, -4.011036, -1.740461, 0.037301, -1.953288, 17.315643, 144.568604, -240.953888
1715798105.311047, 5.336676, -1.291373, -7.142203, -1.702958, -0.241057, -1.603349, 16.336685, 143.801636, -239.768341
1715798105.344369, 5.656750, -1.312471, -9.293094, -1.609149, -0.571636, -1.286608, 15.502197, 142.873291, -238.543945
1715798105.377756, 6.297798, -1.316212, -10.068516, -1.679448, 0.293495, -1.189989, 15.242706, 141.804077, -236.999023
1715798105.411060, 6.665457, -0.917428, -11.446229, -1.690209, 0.666813, -1.031469, 14.861664, 141.394180, -236.299210
1715798105.444441, 7.909096, -0.827346, -13.686454, -1.657119, 0.124327, -0.271827, 13.917831, 140.190628, -235.028091
1715798105.477793, 6.364237, -0.449212, -12.729072, -1.311195, 0.192678, 0.035303, 13.479950, 138.966751, -234.086609
1715798105.511138, 5.553800, 0.176273, -11.948563, -1.612117, 0.066232, 0.362065, 13.224915, 138.411545, -234.096710
1715798105.544383, 3.841646, -0.625934, -12.852823, -1.470252, 0.199215, 0.433137, 12.789093, 137.486115, -233.557388
1715798105.577717, 3.776853, 0.292841, -11.543793, -1.382415, -0.171452, 0.636315, 12.934448, 136.571259, -233.229538
1715798105.611044, 3.165284, 0.581941, -12.023381, -1.497642, -0.148219, 0.823542, 12.917984, 135.392502, -232.768372
1715798105.644410, 3.593547, 1.122731, -12.488904, -1.189902, 0.174704, 0.784247, 13.097519, 135.023361, -232.573624
1715798105.677763, 3.809773, 1.712602, -12.497583, -1.264897, -0.274448, 1.340983, 13.299789, 134.602280, -232.249466
1715798105.711132, 2.948310, 2.432958, -13.101221, -0.932385, -0.054335, 1.244594, 13.740494, 133.502914, -232.651428
1715798105.744383, 3.963002, 3.097199, -12.335526, -1.060877, -0.187565, 1.467299, 14.042099, 133.589127, -232.517776
1715798105.777717, 3.692009, 3.664026, -13.819182, -0.762302, -0.035893, 2.058442, 14.959427, 133.111176, -232.508804
1715798105.811098, 2.612972, 4.442441, -12.837260, -0.762515, -0.286397, 2.238237, 15.548752, 132.781006, -232.469604
1715798105.844495, 1.994220, 4.951658, -13.567342, -0.827376, -0.111635, 2.426230, 16.008469, 132.479401, -232.290817
1715798105.877706, 1.579575, 5.292832, -15.072547, -0.580577, 0.092761, 2.431119, 16.406403, 131.838409, -232.231705
1715798105.911056, 1.104924, 6.109105, -15.113997, -0.399408, -0.751039, 2.820336, 17.491745, 131.815430, -231.812637
1715798105.944496, -0.351199, 6.336853, -15.117438, -0.375260, 0.186877, 2.421520, 18.732544, 131.636826, -231.746170
1715798105.977755, -0.005237, 5.004330, -16.008231, -0.027191, -0.220170, 2.452780, 18.862106, 131.447021, -231.915482
1715798106.011057, -1.362001, 5.181202, -15.561862, 0.332953, -1.548993, 2.508209, 19.998016, 131.335388, -231.769440
1715798106.044392, -2.499547, 5.207538, -15.463849, 0.798173, -0.891293, 2.073156, 21.311691, 131.579956, -232.293060
1715798106.077723, -2.585439, 5.683984, -13.794492, 1.005346, 0.072482, 1.615938, 22.215775, 131.947250, -232.100418
1715798106.111057, -3.076848, 5.404012, -13.314155, 1.276977, -0.572142, 1.426891, 22.719864, 132.405518, -232.176697
1715798106.144392, -3.337367, 5.122394, -12.170625, 1.379692, -0.900639, 1.115049, 23.500687, 132.796387, -232.896988
1715798106.177693, -3.503316, 4.694880, -10.820744, 1.450398, -0.222646, 0.659878, 23.849777, 133.290894, -233.055008
1715798106.211159, -3.785981, 4.343231, -10.753557, 1.500982, -0.324344, 0.382509, 23.683487, 134.099579, -233.538147
1715798106.244443, -4.059818, 4.003105, -10.500819, 1.728346, -0.999313, 0.120411, 24.834671, 135.288849, -234.336136
1715798106.277765, -3.894319, 3.694403, -9.085247, 1.937747, -0.484499, -0.299984, 24.937790, 136.540588, -235.217072
1715798106.311025, -3.656544, 2.850147, -7.437587, 2.034599, -0.733563, -0.580825, 24.752029, 137.157059, -235.675354
1715798106.344437, -3.718943, 2.566883, -6.461801, 1.726454, -1.587619, -0.647605, 25.123749, 138.588638, -236.729248
1715798106.377666, -3.768922, 1.659032, -5.554548, 1.576330, -0.971690, -0.974200, 25.735107, 139.848053, -238.127472
1715798106.411078, -4.125209, 1.064672, -3.985298, 1.417858, -0.383670, -1.313453, 25.572586, 140.295700, -238.777573
1715798106.444430, -4.185364, 0.036063, -4.603302, 0.735205, -1.297566, -1.380497, 25.296402, 141.294510, -239.487900
1715798106.477779, -3.856161, -0.464325, -5.052963, 0.620798, -0.959832, -1.691797, 24.797668, 142.337692, -240.339355
1715798106.511151, -3.105429, -0.939575, -5.567117, 0.490343, -0.600268, -2.047807, 24.270859, 142.718994, -240.439713
1715798106.544360, -2.403629, -0.850839, -6.143521, 0.463672, -1.230376, -2.109378, 23.338837, 143.159607, -241.179581
1715798106.577902, -1.872864, -0.981922, -5.779004, 0.467383, -1.030248, -2.276541, 22.509018, 143.957260, -241.721466
1715798106.611070, -0.684592, -1.434127, -5.893178, 0.518316, -1.003989, -2.455993, 21.103897, 144.939651, -241.927155
1715798106.644380, 0.404470, -1.519420, -5.761946, 0.375380, -2.204066, -2.317355, 20.653381, 145.064743, -242.287857
1715798106.677453, 2.565686, -1.533187, -4.129399, -0.013767, -1.710266, -2.057592, 20.027588, 145.541626, -242.926010
1715798106.711035, 3.307141, -2.033575, -3.128324, -0.586607, -0.124792, -2.010637, 18.919922, 145.494858, -242.496231
1715798106.744403, 3.759046, -2.515109, -4.060267, -0.997546, 0.426756, -1.700530, 17.944977, 145.530502, -242.109482
1715798106.777733, 3.757400, -2.354997, -4.115333, -1.242486, 0.142493, -1.646009, 16.512375, 144.899078, -241.202408
1715798106.811068, 4.661211, -2.333748, -4.673482, -1.320605, 0.163710, -1.551877, 15.259521, 144.121902, -240.280624
1715798106.844439, 5.197064, -1.645864, -4.931756, -1.500865, -0.023610, -1.333281, 14.359573, 143.392822, -239.161667
1715798106.877704, 4.928314, -1.014992, -5.564125, -1.905561, -0.353291, -1.220011, 14.036942, 142.754745, -238.283035
1715798106.911073, 5.578191, -1.257106, -7.595305, -1.860309, -0.116396, -1.036628, 13.425842, 141.330093, -236.990158
1715798106.944406, 5.959766, -0.446968, -9.207501, -1.751346, 0.091029, -0.789530, 12.294586, 140.397400, -235.476944
1715798106.977689, 6.644957, -0.180463, -9.920524, -1.813300, -0.096571, -0.437889, 12.579391, 139.717285, -234.967926
1715798107.011034, 7.048081, 0.322170, -10.911275, -2.139107, -0.406211, 0.184189, 12.130768, 138.269623, -234.069473
1715798107.044476, 4.371214, 0.572065, -13.308469, -2.297312, 0.090822, 0.267325, 11.542007, 136.509064, -232.919098
1715798107.077818, 4.643853, 0.248997, -15.285780, -1.532679, -0.299764, 0.420002, 11.816422, 135.748657, -232.748947
1715798107.111045, 4.717026, 1.038635, -14.025832, -1.403201, -0.789682, 0.790779, 12.067688, 134.854324, -232.325699
1715798107.144404, 3.994875, 1.997363, -13.697527, -1.462220, -0.505317, 0.959932, 12.708145, 133.886124, -231.998932
1715798107.177870, 4.579360, 2.935890, -14.484621, -1.220891, -0.442298, 1.292063, 12.873154, 133.341537, -231.838455
1715798107.211075, 4.044704, 3.088221, -15.131654, -1.096822, -0.752884, 1.782100, 13.303238, 132.801712, -231.834778
1715798107.244470, 2.166304, 3.406650, -15.523555, -0.558588, -0.375895, 1.593372, 14.529587, 132.240875, -231.850296
1715798107.277743, 3.619734, 4.454263, -13.678673, -0.291950, -0.772507, 2.024166, 15.313080, 132.295502, -232.195068
1715798107.311151, 2.185756, 4.855890, -13.747207, -0.058138, -0.415544, 2.042094, 15.973618, 131.914352, -231.930939
1715798107.344413, 1.757344, 5.098303, -12.839206, 0.199468, -0.239196, 1.970461, 16.979645, 132.350952, -231.993820
1715798107.377718, 2.103456, 5.050718, -13.331513, 0.049416, -0.354832, 2.247288, 17.690170, 132.324860, -232.003128
1715798107.411209, 1.150414, 5.135114, -13.590985, 0.234715, 0.144603, 2.503681, 17.865448, 132.464569, -231.751785
1715798107.444463, -0.642394, 5.476138, -14.039000, 0.141192, 0.093050, 2.491709, 18.692856, 132.608459, -232.048279
1715798107.477746, -0.863409, 5.566519, -15.509189, 0.143782, 0.342023, 2.467481, 19.278564, 132.146973, -232.078537
1715798107.511166, -1.291971, 5.979070, -16.055367, 0.567031, 0.190224, 2.371841, 19.674911, 132.939301, -232.086334
1715798107.544462, -1.835006, 5.919364, -15.838991, 0.820970, -0.287800, 2.328896, 19.768845, 132.701447, -231.969681
1715798107.577792, -3.020435, 5.144242, -13.847165, 1.052437, -0.242219, 2.104244, 20.676712, 133.329773, -232.376404
1715798107.611159, -3.350236, 5.118953, -12.550106, 1.030573, 0.021174, 1.573613, 21.380081, 133.777557, -232.618805
1715798107.644416, -3.477428, 4.961833, -12.316970, 0.959092, -0.175361, 1.351478, 21.780106, 133.834061, -232.849731
1715798107.677712, -3.779397, 3.895216, -12.050915, 1.217388, -0.187901, 1.025445, 22.421204, 134.484222, -233.154099
1715798107.711082, -4.404284, 3.712808, -11.385027, 1.586275, -0.333679, 0.432801, 22.849319, 135.168564, -233.625916
1715798107.744473, -3.567959, 3.338415, -10.188376, 1.609611, -0.568385, 0.146664, 23.174911, 135.627457, -234.207809
1715798107.777782, -3.242946, 3.119645, -9.528324, 1.570253, -0.876842, -0.031533, 23.277451, 136.796799, -234.763184
1715798107.811046, -3.578583, 2.186954, -9.207351, 1.539957, -0.953898, -0.463503, 23.968399, 137.714279, -235.697922
1715798107.844415, -3.885490, 2.112733, -8.465149, 1.585088, -1.371793, -0.786827, 24.514999, 138.605743, -236.648224
1715798107.877760, -3.848829, 1.515679, -6.662465, 1.575673, -1.574578, -1.090127, 24.725433, 139.309891, -237.653641
1715798107.911158, -3.930980, 1.077091, -3.843143, 1.225148, -1.363818, -1.497627, 24.808838, 140.570404, -238.871002
1715798107.944421, -3.728819, 0.537798, -3.523217, 1.135675, -0.925255, -2.074702, 24.211029, 141.526093, -240.080887
1715798107.977796, -3.020884, 0.125845, -2.964770, 0.969779, -1.564149, -2.151160, 23.813004, 142.228256, -240.611420
1715798108.011071, -2.527379, -0.221464, -2.502090, 0.711432, -1.618803, -2.350279, 23.278549, 143.134766, -241.429550
1715798108.044421, -1.255459, -0.981623, -2.293047, 0.256429, -0.413954, -2.516415, 21.652313, 143.852646, -241.736130
1715798108.077759, -1.225233, -1.262792, -3.568857, 0.005528, -0.753546, -2.557264, 20.352005, 144.436417, -241.894836
1715798108.111079, 0.939724, -2.048688, -4.239832, -0.039893, -1.202551, -2.504961, 19.324799, 144.287567, -241.657608
1715798108.144464, 3.008614, -2.521992, -3.859303, -0.349682, -0.124463, -2.258230, 18.240845, 144.752472, -241.461365
1715798108.177861, 3.784784, -2.520346, -4.877438, -0.652669, -0.057036, -1.856317, 16.912354, 144.452850, -241.160736
1715798108.211162, 3.057844, -2.169745, -6.103419, -0.953027, -0.490581, -1.898127, 16.226486, 144.205231, -240.731659
1715798108.244423, 6.737732, -2.779369, -7.343914, -0.684155, 0.336766, -1.572639, 14.859665, 143.965927, -239.967255
1715798108.277804, 5.816713, -2.302474, -6.853851, -0.857693, 0.264841, -1.286058, 13.884995, 143.469604, -239.434738
1715798108.311172, 6.021268, -2.300080, -7.195623, -0.974864, -0.073726, -1.096406, 13.356522, 142.911743, -238.652618
1715798108.344447, 5.690568, -1.830666, -7.753472, -1.080095, -0.100828, -0.949590, 12.946671, 141.843781, -238.017578
1715798108.377758, 5.841403, -1.693000, -8.200290, -1.116829, -0.035799, -0.772851, 12.675949, 141.532059, -237.153595
1715798108.411092, 4.962881, -1.416470, -8.391976, -1.234533, -0.456755, -0.556889, 12.310272, 140.395798, -236.268661
1715798108.444427, 4.521899, -0.629825, -8.545953, -1.212600, -0.158635, -0.585699, 12.264648, 140.160553, -235.708694
1715798108.477806, 5.022287, -0.282815, -8.364592, -1.303883, 0.210765, -0.443288, 11.454208, 139.254013, -234.997238
1715798108.511157, 5.116708, -0.352546, -9.295638, -1.454520, -1.119950, 0.178244, 11.047028, 138.139557, -234.233658
1715798108.544427, 3.697545, 0.444424, -9.653720, -1.429726, -0.734593, 0.173651, 11.573013, 137.703903, -234.106796
1715798108.577844, 4.794838, 0.863708, -9.432257, -1.620396, 0.365037, 0.101429, 11.257736, 136.655472, -233.276962
1715798108.611193, 5.361216, 1.412579, -10.508301, -1.880449, -0.446170, 0.555724, 11.201721, 135.367828, -233.090286
1715798108.644579, 5.683835, 2.546233, -12.498182, -1.754522, -0.680906, 0.842570, 11.669754, 135.132111, -232.606964
1715798108.677762, 5.937171, 3.646668, -12.511350, -1.642800, -0.539668, 1.302380, 12.114914, 133.894424, -232.631332
1715798108.711075, 5.906346, 3.999215, -14.151827, -1.505372, -0.703975, 1.758822, 12.911407, 132.564377, -232.445648
1715798108.744492, 5.304503, 5.125686, -15.044265, -1.210640, -0.815316, 2.141847, 14.006454, 132.005005, -232.085022
1715798108.777480, 3.852869, 6.159982, -15.513679, -1.147297, -0.074917, 2.564542, 14.690720, 131.974518, -232.226181
1715798108.811096, 2.534711, 6.099528, -16.495301, -0.688848, 0.244482, 2.592546, 15.421463, 131.128906, -232.036377
1715798108.844429, 2.672827, 6.518513, -16.169839, -0.494944, -0.258731, 2.883130, 16.198502, 130.912048, -231.977966
1715798108.877772, 1.075894, 7.066187, -15.922489, -0.362294, -0.138628, 2.883794, 16.845230, 130.539886, -231.974487
1715798108.911097, 0.854431, 7.037905, -16.410606, 0.075897, 0.247061, 2.852409, 16.926071, 131.108337, -231.761276
1715798108.944436, 0.158317, 6.882282, -15.765219, 0.262751, 0.121881, 2.911137, 17.522766, 130.875549, -231.606720
1715798108.977808, -1.618630, 6.147262, -14.906300, 0.388180, 0.040866, 2.550747, 18.260590, 131.158279, -231.423157
1715798109.011176, -1.116745, 5.809231, -14.634258, 0.659536, -0.203855, 2.231781, 18.506271, 131.428772, -231.758743
1715798109.044482, -1.458069, 5.275474, -14.462624, 1.025908, -0.630841, 2.122463, 19.121445, 132.037231, -231.471924
1715798109.077763, -2.136825, 4.490624, -12.943503, 1.323747, -0.196376, 1.701580, 20.122940, 132.589981, -231.647079
1715798109.111157, -2.727594, 4.211550, -11.710639, 1.530417, -0.800613, 1.164371, 20.380386, 133.003174, -231.767593
1715798109.144508, -1.982249, 3.693804, -11.020211, 1.558331, -1.141233, 0.919444, 21.448807, 134.113174, -232.684967
1715798109.177768, -3.206734, 3.650409, -9.874885, 1.520969, -0.975803, 0.454544, 22.337723, 135.051804, -233.562592
1715798109.211170, -2.925864, 3.473388, -10.024373, 1.373258, -1.316485, 0.166248, 22.834122, 135.564743, -233.762970
1715798109.244433, -3.221099, 3.466205, -9.986514, 1.583365, -1.103515, -0.164625, 24.025131, 136.438919, -234.530518
1715798109.277764, -3.561076, 3.469647, -9.436447, 1.687924, -1.048362, -0.530044, 24.582123, 137.354584, -235.790665
1715798109.311114, -4.009689, 2.636914, -8.076690, 1.635053, -1.967982, -0.599486, 25.019577, 138.468094, -237.025726
1715798109.344439, -4.300435, 2.188600, -6.437559, 1.382599, -1.575188, -1.127853, 25.846252, 139.106827, -237.763474
1715798109.377820, -3.842394, 1.273715, -5.569212, 1.371148, -0.957428, -1.457842, 25.518036, 140.239716, -238.920212
1715798109.411175, -4.282927, 0.598700, -3.809624, 1.069107, -1.360508, -1.671900, 25.208786, 141.232468, -239.915298
1715798109.444424, -3.369839, -0.045191, -3.442263, 0.691585, -1.649916, -2.019794, 25.159225, 141.966721, -240.305893
1715798109.477833, -2.526032, -0.328006, -3.284246, 0.554548, -0.951663, -2.274905, 24.504807, 142.711700, -241.463882
1715798109.511196, -1.802535, -0.937779, -2.834286, 0.105914, -0.948121, -2.215985, 23.433609, 143.587494, -241.712173
1715798109.544484, -1.360954, -1.555483, -3.925892, -0.160676, -0.562645, -2.377382, 22.769653, 143.772095, -241.817566
1715798109.577846, -0.230592, -2.000505, -4.248511, -0.126392, -0.431362, -2.341888, 21.493347, 144.109299, -241.705612
1715798109.611149, 0.065392, -1.324442, -4.485686, -0.368804, -0.786574, -2.326899, 20.038055, 144.464142, -241.431961
1715798109.644438, 1.445649, -1.729661, -5.288642, -0.520786, -1.142929, -2.403718, 18.800522, 144.401215, -241.200714
1715798109.677854, 2.666093, -1.974618, -5.856965, -0.467509, -1.255183, -2.320297, 17.944946, 144.480591, -240.930832
1715798109.711154, 4.532673, -1.599027, -5.068375, -0.665762, -1.122258, -1.969678, 17.114380, 144.130585, -240.484406
1715798109.744439, 4.742764, -1.613842, -5.830031, -1.438135, -1.145165, -1.508912, 16.601822, 143.690964, -239.754822
1715798109.777858, 4.880281, -1.795801, -7.705888, -1.537056, -0.463607, -1.348068, 16.303223, 143.176987, -238.965927
1715798109.811159, 5.808184, -2.009334, -9.384522, -1.432850, 0.077808, -0.991107, 16.165466, 142.488159, -237.903198
1715798109.844432, 4.649839, -1.496975, -10.219201, -1.528065, -0.052159, -0.638545, 15.675781, 141.470123, -236.548477
1715798109.877887, 4.853645, -2.062156, -11.210101, -1.317471, 0.268146, -0.557453, 15.384232, 141.165009, -236.371490
1715798109.911187, 5.116708, -1.338808, -11.015572, -1.095906, 0.713449, -0.340324, 14.599258, 140.057846, -235.462418
1715798109.944472, 4.540005, -1.523012, -9.971102, -1.217842, 0.457191, -0.339617, 13.924744, 139.186203, -234.553528
1715798109.977859, 5.791275, -0.607678, -10.476278, -1.547255, -0.491397, 0.191959, 13.603165, 138.362503, -233.783295
1715798110.011194, 3.983054, 0.364517, -10.823288, -1.850513, 0.486109, 0.108588, 13.366913, 137.509094, -233.152969
1715798110.044488, 4.791396, -0.550367, -12.366052, -1.376036, 0.834825, 0.220919, 12.846848, 136.636917, -232.720154
1715798110.077779, 4.012682, 0.433201, -10.508750, -1.079835, -0.282675, 0.769397, 12.564972, 135.685211, -232.798996
1715798110.111133, 3.735404, 1.781136, -9.325565, -1.354116, -0.084351, 0.800619, 12.936707, 135.432159, -232.392136
1715798110.144447, 4.334104, 2.457349, -10.768221, -1.376058, 0.292044, 1.092775, 12.740616, 134.526733, -232.371246
1715798110.177882, 4.105457, 3.119944, -11.794286, -1.223895, -0.510511, 1.542312, 12.985580, 133.921310, -232.071747
1715798110.211186, 3.156456, 3.833117, -11.643003, -1.120296, -0.897827, 1.702881, 13.768433, 133.228409, -232.334854
1715798110.244438, 2.387618, 4.602404, -11.737424, -1.031224, -1.083990, 1.869569, 14.553680, 132.613342, -232.189346
1715798110.277783, 2.072930, 4.776283, -12.741492, -0.760798, -2.352431, 2.548878, 16.839493, 132.536636, -231.957932
1715798110.311114, 1.006014, 5.714660, -13.643209, -0.754270, -0.995366, 2.810804, 18.911148, 131.285843, -232.340714
1715798110.344448, -1.104176, 6.305130, -15.980099, -0.656684, 0.477294, 2.520740, 19.229126, 131.281235, -232.032516
1715798110.377785, 0.257676, 6.130054, -19.388395, -0.039982, -1.001947, 3.031245, 19.818344, 130.831772, -232.037476
1715798110.411100, -2.022951, 7.546823, -18.578855, 0.583157, 0.150099, 2.823912, 21.118820, 130.609589, -232.086151
1715798110.444424, -1.847276, 7.356783, -18.866608, 0.980214, 1.316832, 2.631400, 20.916763, 130.507507, -231.910629
1715798110.477810, -2.611775, 7.631518, -18.128895, 1.302800, 0.269544, 2.669898, 20.937302, 131.464066, -231.897217
1715798110.511120, -3.029713, 7.601740, -16.451308, 1.933261, 0.691311, 2.100450, 21.582718, 132.154922, -232.459763
1715798110.544457, -2.802862, 6.939594, -14.138359, 1.891594, 0.418754, 1.928018, 21.457169, 133.445984, -232.602112
1715798110.577814, -3.134609, 6.159084, -12.500725, 1.760374, -0.111907, 1.880198, 21.845367, 134.178879, -233.060150
1715798110.611197, -4.608090, 5.414936, -11.180323, 1.604713, 0.230818, 1.201829, 22.416855, 135.077438, -233.572968
1715798110.644454, -4.203320, 4.292355, -10.644172, 1.484966, 0.073341, 0.835781, 22.639694, 135.685989, -233.784225
1715798110.677786, -4.215890, 3.714754, -9.397990, 1.632787, -0.612167, 0.623659, 23.144104, 136.108719, -234.334198
1715798110.711166, -3.994127, 3.212420, -7.783999, 1.296191, -0.675221, 0.033796, 23.665314, 137.192673, -234.911346
1715798110.744519, -3.883694, 2.676717, -8.170363, 1.153857, -1.030473, -0.254222, 24.209076, 137.639252, -235.874954
1715798110.777789, -3.678541, 2.014272, -8.332420, 1.372657, -1.763295, -0.571559, 24.272125, 138.133942, -236.305511
1715798110.811118, -3.600879, 1.230171, -7.161356, 1.422609, -1.525543, -1.195546, 25.208633, 139.429901, -237.630280
1715798110.844441, -3.452439, 0.678158, -6.209512, 1.454015, -1.632930, -1.508767, 25.139481, 140.284195, -238.581253
1715798110.877761, -3.417873, 0.311097, -5.199607, 1.182290, -2.020849, -1.768156, 25.366989, 141.638260, -239.974182
1715798110.911122, -2.970606, -0.320075, -3.053505, 1.164499, -1.663715, -2.040716, 25.438141, 141.896545, -240.646545
1715798110.944531, -3.251775, -0.243311, -2.007688, 0.494153, -1.292939, -2.393403, 24.426041, 143.353256, -241.794128
1715798110.977867, -2.256086, -0.848744, -2.766500, 0.109017, -1.216576, -2.465254, 23.148209, 143.966980, -242.144363
1715798111.011128, -0.887201, -1.529745, -3.812018, 0.049080, -1.319380, -2.319273, 22.577972, 144.274918, -242.074219
1715798111.044498, -0.543334, -1.323096, -3.456030, -0.168862, -1.188297, -2.318572, 21.539398, 144.367050, -242.430969
1715798111.077748, 0.891840, -1.477222, -3.207482, -0.456207, -0.856947, -2.349924, 20.389404, 144.778534, -242.084717
1715798111.111071, 2.890849, -1.841740, -4.255394, -0.790697, -1.158617, -1.996174, 19.609543, 144.900848, -241.675400
1715798111.144515, 3.624223, -1.795352, -5.233126, -1.162552, -0.762226, -1.670368, 19.003922, 144.621689, -241.083694
1715798111.177888, 4.704756, -2.485181, -6.843077, -0.978863, -0.742963, -1.321174, 18.103317, 144.099472, -240.061737
1715798111.211209, 5.023484, -2.294842, -7.087585, -1.061221, -0.956727, -0.856234, 17.833542, 143.525620, -239.359375
1715798111.244464, 4.902278, -2.060809, -7.708880, -1.233509, 0.696443, -1.243212, 17.579971, 143.331589, -238.962311
1715798111.277870, 5.383811, -2.374300, -8.455123, -1.322179, 0.747762, -1.065214, 16.336197, 142.528366, -237.991638
1715798111.311202, 5.173421, -2.212392, -9.157821, -1.444966, 0.521931, -0.754544, 15.754242, 141.659317, -236.727142
1715798111.344447, 5.204845, -1.741034, -9.886108, -1.473067, 0.447144, -0.393159, 15.201202, 141.101181, -235.975281
1715798111.377871, 3.988590, -1.696142, -10.657938, -1.485457, 0.463131, -0.405903, 14.651794, 140.413498, -235.173126
1715798111.411148, 4.276343, -2.110638, -11.327118, -1.049617, 0.694139, -0.426329, 13.570679, 139.253387, -234.273911
1715798111.444432, 4.692037, -1.298256, -11.500398, -1.172308, 0.432171, 0.015546, 13.285339, 138.867752, -234.186646
1715798111.477780, 3.240851, -1.119888, -12.118850, -0.773282, 0.359113, 0.012341, 12.767044, 138.109039, -234.027237
1715798111.511177, 3.735703, -1.048361, -10.603770, -0.691923, 0.592821, -0.289573, 12.110596, 137.758911, -233.971039
1715798111.544476, 5.445312, 0.089633, -9.210643, -0.930519, 0.526775, 0.120102, 11.492752, 137.279861, -233.511536
1715798111.577871, 5.231630, 0.479888, -9.768941, -1.195310, -0.343513, 0.474397, 11.424225, 136.736282, -233.688019
1715798111.611214, 5.309591, 1.456423, -9.905560, -1.438810, -0.606867, 0.702935, 11.805145, 135.831085, -233.360016
1715798111.644449, 5.532252, 1.824831, -12.450896, -1.620920, -0.587943, 1.151335, 12.318344, 135.043350, -233.117889
1715798111.677782, 4.611681, 2.506280, -13.847015, -1.048948, -0.594345, 1.458256, 12.537766, 134.902634, -232.893600
1715798111.711211, 4.594772, 3.546112, -13.655628, -1.116885, -0.830833, 1.727502, 13.975555, 134.193527, -233.049881
1715798111.744578, 4.050391, 3.782390, -15.719730, -1.004640, -0.387988, 1.975671, 14.770706, 133.687759, -232.718246
1715798111.777830, 4.026299, 4.045602, -16.498144, -0.519409, 0.096119, 2.306495, 15.509674, 133.167648, -232.653137
1715798111.811121, 2.712630, 4.756830, -17.251570, -0.266402, 0.058686, 2.596585, 15.813202, 133.103302, -232.601135
1715798111.844477, 1.530344, 5.444115, -16.911892, -0.110278, 0.473848, 2.604961, 16.667267, 132.788910, -232.568619
1715798111.877829, 0.516699, 5.227590, -18.056770, 0.100816, 0.597600, 2.721773, 17.316269, 132.833588, -232.604324
1715798111.911212, -0.927604, 5.378275, -17.780688, 0.889092, 0.077145, 2.597816, 17.334351, 133.448547, -232.365479
1715798111.944473, -1.219247, 5.400122, -15.655236, 1.112552, -0.189346, 2.431513, 18.062683, 134.189148, -232.580704
1715798111.977882, -1.437269, 5.527015, -12.743438, 0.941191, 1.109999, 1.920213, 18.744522, 134.657959, -232.746307
1715798112.011207, -1.441758, 4.974852, -13.276746, 0.944378, 0.655963, 1.748281, 18.063293, 134.908783, -232.946121
1715798112.044471, -1.621623, 4.427029, -12.618341, 1.160110, -0.194669, 1.764365, 18.733002, 135.705658, -233.255615
1715798112.077846, -3.224840, 3.406350, -11.044752, 1.182758, -0.161780, 1.501268, 19.526077, 136.162506, -233.580490
1715798112.110679, -3.617339, 2.797924, -11.334001, 1.066273, -0.900699, 1.232123, 20.459366, 136.821991, -234.006256
1715798112.144541, -4.186561, 2.417096, -11.189451, 1.121343, -1.132043, 0.811912, 21.268631, 137.283417, -234.515182
1715798112.177903, -4.051139, 2.009334, -11.222222, 1.424044, -0.685978, 0.142059, 22.113266, 137.721695, -234.974335
1715798112.211162, -3.581127, 1.651251, -10.617985, 1.494544, -1.878945, -0.100531, 22.964325, 138.746429, -236.126770
1715798112.244477, -3.654001, 1.249474, -9.557653, 1.447838, -1.919457, -0.401363, 23.481384, 138.891525, -236.605576
1715798112.277886, -4.179528, 1.090858, -7.745542, 1.435986, -1.539570, -0.891915, 24.045670, 140.114594, -238.095932
1715798112.311114, -4.415955, 0.710928, -6.069900, 1.499422, -1.645922, -1.567449, 24.613525, 141.188171, -239.006256
1715798112.344479, -3.469946, 0.327856, -4.066701, 1.366340, -1.771495, -1.785855, 24.774109, 141.940536, -240.112717
1715798112.377810, -3.254618, 0.380080, -2.180669, 0.740847, -1.677845, -1.991969, 24.074570, 143.114807, -241.627121
1715798112.411138, -2.738518, -0.169839, -3.218854, 0.345361, -1.562940, -2.276943, 23.226212, 143.607117, -242.003677
1715798112.444479, -1.205181, -0.967407, -3.299509, 0.302317, -1.158835, -2.432149, 21.943680, 144.493881, -242.934586
1715798112.477833, -0.636558, -0.782156, -1.990330, -0.122151, -0.926825, -2.425212, 21.677032, 144.939636, -242.550842
1715798112.511254, 0.458190, -1.529596, -2.359186, -0.650930, -0.782005, -2.491412, 19.623032, 144.678528, -241.965744
1715798112.544533, 2.165256, -1.869123, -3.814263, -0.855143, -0.485421, -2.342295, 18.256256, 144.858902, -241.797653
1715798112.577841, 3.496283, -2.059313, -4.351910, -0.902988, -0.039485, -2.106817, 17.728653, 144.552261, -241.498032
1715798112.611148, 3.639635, -1.668459, -5.237017, -1.280051, -0.576101, -1.837149, 16.280518, 143.790039, -240.431900
1715798112.644479, 4.971709, -2.035820, -6.923283, -1.249749, 0.001203, -1.585790, 15.476639, 143.264893, -239.448547
1715798112.677835, 6.502352, -2.207604, -7.236624, -0.996222, 0.550956, -1.149025, 15.000412, 142.868591, -238.861969
1715798112.711116, 4.138527, -0.878223, -6.936002, -1.284425, 0.249814, -0.972527, 14.086014, 142.295975, -238.173050
1715798112.744486, 5.507711, -1.416619, -7.937527, -1.317458, 0.403638, -1.253777, 13.332230, 141.090164, -236.957825
1715798112.777816, 8.321048, -1.468095, -8.698733, -1.457999, 0.008983, -0.394969, 12.518860, 140.166962, -235.856552
1715798112.811235, 6.982839, -2.008885, -10.207080, -1.309241, 0.206635, 0.028274, 12.347198, 139.571335, -235.395004
1715798112.844457, 5.011962, -0.881665, -11.761965, -1.174940, 0.655967, -0.440980, 12.011261, 138.746063, -234.836395
1715798112.877900, 5.815516, -1.430386, -12.860753, -0.903939, -0.119710, -0.102560, 11.407654, 138.101669, -234.282623
1715798112.911200, 4.988918, -1.114052, -11.024850, -0.677447, -0.023253, 0.105822, 11.045181, 137.837067, -234.007446
1715798112.944598, 3.414132, -0.228796, -8.785224, -0.718336, 0.239913, -0.082746, 10.857941, 137.487320, -233.923843
1715798112.977875, 4.651036, 0.610073, -8.574085, -1.159190, -0.443257, 0.051110, 10.624939, 136.837967, -233.703400
1715798113.011114, 5.553500, 1.305588, -9.140014, -1.293731, -0.327392, 0.449354, 10.889709, 135.830444, -233.420959
1715798113.044491, 4.451120, 2.027141, -9.844957, -1.352791, -0.240114, 0.463609, 11.123398, 135.446060, -233.167374
1715798113.077819, 4.988768, 2.629282, -10.981455, -1.326741, -1.111415, 1.087440, 11.653854, 134.591980, -232.958755
1715798113.111196, 4.416554, 3.159448, -12.006921, -1.216412, -0.387166, 1.208462, 12.448318, 133.964417, -232.395538
1715798113.144485, 2.729091, 3.363404, -16.245107, -0.250959, 0.023067, 0.834728, 12.730362, 133.836060, -232.598450
1715798113.177927, 3.923049, 3.874417, -13.936349, -0.228386, -1.008952, 1.585726, 13.288208, 133.626129, -232.577072
1715798113.211247, 3.919907, 3.692009, -13.631686, -0.516490, -0.121159, 1.845599, 14.342224, 133.623413, -232.589966
1715798113.244634, 3.133112, 3.668815, -15.798738, -0.529030, 0.220047, 2.096681, 14.956055, 133.766708, -232.677551
1715798113.277894, 2.256984, 3.571550, -16.419884, -0.270334, -0.399752, 2.549213, 15.494293, 133.343735, -232.879791
1715798113.311244, 1.939154, 3.361908, -15.476868, -0.118843, -0.597811, 2.675799, 16.652725, 133.762543, -232.757355
1715798113.344495, 1.683722, 3.496881, -15.296255, -0.131548, 0.142246, 2.716776, 17.644333, 133.542343, -232.693558
1715798113.377831, 0.420332, 3.518429, -16.451457, -0.077548, 0.213863, 2.646456, 17.785095, 133.380676, -232.417328
1715798113.411032, 0.731429, 3.438373, -16.413449, 0.476774, -0.078804, 2.660748, 18.857468, 133.494659, -232.366287
1715798113.444255, -0.211288, 4.193893, -15.319599, 0.670241, -0.005294, 2.430119, 19.721191, 134.109650, -232.665237
1715798113.477825, -0.555305, 4.021062, -14.753669, 0.821156, -0.217184, 2.277597, 20.331726, 134.151352, -233.009659
1715798113.511231, -1.359158, 4.149900, -13.980941, 1.079761, -0.457655, 1.986293, 21.302582, 134.612411, -233.049484
1715798113.544494, -1.618630, 4.350264, -13.354707, 1.007894, -0.507459, 1.889462, 22.171860, 134.465485, -233.773239
1715798113.577828, -3.460519, 4.851401, -13.622559, 1.168153, -0.292433, 1.538020, 22.865082, 134.804901, -233.801468
1715798113.611234, -3.757700, 5.125836, -12.445509, 1.377853, -1.296846, 1.370498, 23.880585, 135.177170, -234.198318
1715798113.644494, -5.200655, 5.445911, -10.679785, 1.490838, -1.124626, 0.748083, 24.968445, 135.975433, -235.253082
1715798113.677824, -5.513098, 4.863372, -9.531616, 1.593677, -1.705132, 0.235662, 26.571686, 136.656586, -236.278702
1715798113.711159, -5.576245, 3.830274, -7.993042, 1.681321, -1.757464, -0.306197, 26.955368, 137.207520, -237.285507
1715798113.744572, -6.193201, 2.918532, -6.378602, 1.433671, -2.028318, -0.821063, 28.032669, 138.308075, -238.479050
1715798113.777828, -6.328773, 1.744625, -5.456535, 1.422850, -1.924958, -1.464553, 28.287018, 139.362213, -240.240143
1715798113.811154, -4.870255, 0.962768, -3.887136, 1.154917, -2.405349, -1.865550, 28.510284, 139.947632, -241.194992
1715798113.844517, -4.228908, 1.049857, -2.798971, 0.763024, -1.761949, -2.228579, 28.377350, 141.282135, -242.585770
1715798113.877828, -3.597887, 0.277278, -2.725499, 0.538927, -1.615560, -2.419398, 27.155731, 142.342926, -243.753738
1715798113.911246, -2.300379, -0.409708, -2.480543, 0.195556, -1.953120, -2.308249, 26.917587, 143.238586, -244.050369
1715798113.944591, -2.130690, -0.412850, -1.862988, -0.360451, -1.001788, -2.570375, 26.051895, 143.871124, -244.770584
1715798113.977912, -1.139191, -1.528099, -2.661454, -0.559087, -0.856264, -2.598029, 24.329071, 144.751022, -244.476456
1715798114.011176, -0.472406, -1.945139, -3.524115, -0.610788, -1.351503, -2.377638, 22.686127, 144.986465, -244.418121
1715798114.044574, 0.869095, -1.683124, -2.885312, -0.931516, -0.542007, -2.499640, 22.226608, 145.338379, -244.159912
1715798114.077890, 2.830096, -2.231845, -3.511695, -1.273806, 0.117567, -2.217856, 20.404678, 145.173447, -243.240784
1715798114.111148, 4.075380, -2.355894, -6.255450, -1.405542, -0.073217, -1.710301, 19.070786, 144.836426, -242.005600
1715798114.144579, 4.070442, -1.758990, -6.471527, -1.247983, 0.326163, -1.505623, 18.369385, 144.680328, -241.444458
1715798114.177930, 5.515941, -2.190246, -6.806566, -1.294506, 0.759200, -1.440482, 17.476227, 144.237305, -240.323090
1715798114.211127, 5.852776, -1.712602, -6.701969, -1.126970, 0.967169, -1.034801, 16.253021, 143.513535, -239.318710
1715798114.244501, 5.408502, -2.215385, -7.116016, -1.498216, 0.287305, -0.866531, 15.372879, 142.767227, -238.164581
1715798114.277886, 6.178537, -2.366968, -7.996783, -1.436069, 0.474976, -0.592579, 15.228577, 142.445480, -237.965088
1715798114.311257, 5.158607, -1.633743, -8.211962, -1.607721, 0.962798, -0.451286, 14.377136, 141.322067, -236.639908
1715798114.344472, 4.778078, -1.922694, -10.748020, -1.461627, 0.708801, -0.227933, 13.256577, 140.524200, -235.568878
1715798114.377932, 4.393959, -1.238850, -10.771214, -1.438582, 0.578192, -0.065786, 12.945282, 139.889206, -235.345505
1715798114.411214, 4.628441, -1.232266, -11.563096, -1.491842, 0.780456, 0.033977, 12.138321, 138.815216, -234.575058
1715798114.444611, 4.256142, -0.409857, -13.514371, -1.230876, 0.834192, 0.196395, 11.433838, 137.814499, -234.386047
1715798114.477835, 4.778527, -0.409259, -13.920487, -0.783433, 0.508786, 0.260637, 10.940613, 137.582535, -234.202682
1715798114.511221, 4.849755, -0.032471, -13.010990, -0.762545, 0.640085, 0.487441, 10.516037, 137.172653, -234.247299
1715798114.544510, 4.295946, 0.086939, -13.995904, -0.739288, 0.559733, 0.551073, 10.066330, 136.818542, -234.423050
1715798114.577865, 4.865916, 0.241964, -14.190882, -0.311196, 0.211411, 0.759335, 10.260880, 136.604675, -234.268616
1715798114.611224, 4.089596, 0.481085, -13.360393, -0.297631, 0.310813, 0.767851, 10.039886, 136.563095, -234.640839
1715798114.644508, 3.612850, 0.373944, -13.316400, -0.098532, -0.075518, 0.779040, 10.279449, 136.739517, -234.867310
1715798114.677840, 2.881571, 0.962469, -12.339266, -0.120730, 0.035493, 1.044861, 10.744507, 137.085602, -235.110184
1715798114.711248, 1.394323, 0.600645, -12.349891, -0.020805, 0.612361, 0.745717, 11.236069, 137.202072, -235.298004
1715798114.744561, 1.892317, 0.241964, -12.655151, 0.204661, 0.186456, 0.655617, 11.059525, 137.174988, -235.526718
1715798114.777843, 1.291971, 0.217872, -12.173318, 0.405519, -0.157679, 0.716219, 11.310394, 137.585037, -235.648987
1715798114.811250, 0.816572, 0.173430, -10.910527, 0.339582, 0.222870, 0.549560, 11.685242, 138.049927, -235.684479
1715798114.844511, 0.848296, -0.454599, -11.141268, 0.401784, -0.000093, 0.527228, 11.893051, 138.168076, -235.785904
1715798114.877978, 0.901118, -0.370353, -9.844658, 0.269569, -0.043201, 0.514926, 12.145905, 138.669708, -236.122437
1715798114.911185, 0.887052, -0.703746, -10.260950, 0.268533, -0.185619, 0.445795, 12.669708, 138.897812, -236.274307
1715798114.944513, 0.630274, -0.859518, -10.070760, 0.304635, -0.318002, 0.282677, 12.614182, 139.016800, -236.387817
1715798114.977844, 1.374122, -1.254711, -9.229049, 0.529517, -1.504641, 0.262292, 13.365479, 139.207489, -236.375443
1715798115.011233, 0.601693, -1.574786, -8.811560, 0.091919, -1.469517, 0.405973, 14.995758, 139.788040, -236.348770
1715798115.044589, -2.006640, -1.754651, -10.049362, 0.129648, 0.237630, -0.146964, 15.249191, 139.764175, -236.358322
1715798115.077912, -0.598102, -1.311873, -10.947637, 0.768138, 0.211714, -0.311261, 14.719269, 139.972153, -236.667694
1715798115.111183, 2.504485, -1.234361, -9.974244, 0.691022, 0.805806, 0.193734, 14.381912, 140.676926, -236.969910
1715798115.144565, 0.881814, -2.412457, -9.743054, 1.009855, -0.074942, 0.309728, 14.325241, 140.890549, -237.507736
1715798115.177946, 1.632696, -2.102109, -9.699809, 0.684685, -0.552679, 0.435318, 14.548019, 141.488831, -238.171005
1715798115.211180, 0.481534, -2.405873, -9.350405, 0.078187, -0.876717, 0.090169, 15.228943, 141.794373, -238.146591
1715798115.244517, 0.946458, -2.090737, -8.722675, -0.243204, -1.023330, 0.020718, 15.727783, 141.862396, -238.038269
1715798115.277810, 0.224756, -2.285415, -8.660127, -0.694237, -1.136953, -0.057566, 16.060532, 141.547470, -238.000351
1715798115.311217, 0.124648, -1.894113, -8.861988, -0.803998, -0.365313, 0.036563, 16.651428, 141.385788, -237.574158
1715798115.344427, -0.440683, -1.191714, -10.197354, -0.129250, 0.223347, -0.030481, 16.940247, 140.818268, -237.041443
1715798115.377819, -0.103100, -1.216254, -9.953744, 0.027467, 0.197147, -0.174889, 16.687164, 140.680756, -237.214813
1715798115.411244, 0.523133, -1.827374, -9.834034, -0.132213, -0.070858, -0.147058, 16.386063, 140.766098, -237.312424
1715798115.443970, 0.465373, -1.802834, -9.965864, -0.243010, -0.150734, -0.087831, 16.283813, 141.022736, -237.054520
1715798115.477830, 0.351349, -1.767220, -10.234314, -0.110940, -0.077902, -0.071565, 16.516388, 140.510895, -236.848206
1715798115.511179, 0.157868, -1.762282, -10.122086, 0.130510, 0.071378, -0.083801, 16.466873, 140.511292, -236.835159
1715798115.544489, 0.474800, -1.731008, -9.611223, -0.061529, -0.078602, -0.009040, 16.292755, 140.851425, -237.227127
1715798115.577859, 0.228347, -1.777695, -9.657012, -0.234647, -0.176946, 0.043615, 16.503662, 140.562225, -236.601837
1715798115.611253, -0.204106, -1.304541, -10.078841, 0.310221, 0.458814, 0.016604, 16.013870, 140.604828, -237.036499
1715798115.644495, 0.545429, -1.838897, -9.967062, 0.155411, -0.213805, 0.014017, 16.395081, 140.810425, -236.905670
1715798115.677858, 0.055366, -1.593640, -9.691579, -0.176170, -0.345345, -0.101587, 16.488876, 140.936142, -237.148666