SamplingTime, AccelerationX, AccelerationY, AccelerationZ, GyroX, GyroY, GyroZ, MagneticFieldX, MagneticFieldY, MagneticFieldZ
1715798022.538899, -0.177470, -2.936937, -10.516830, -0.291807, 0.091185, -0.070081, 13.049240, 139.795242, -237.018951
1715798022.571442, -0.603339, -2.133832, -9.853636, -0.231929, 0.026476, 0.033206, 12.680908, 139.772247, -236.899841
1715798022.605633, 0.106243, -1.939303, -9.553762, -0.159959, 0.310979, -0.163845, 12.827957, 140.067307, -236.926361
1715798022.639020, 0.550966, -2.169895, -9.754277, 0.101506, 0.777324, 0.262042, 12.580872, 139.592392, -237.116699
1715798022.672316, 0.486771, -1.801786, -10.063877, 0.067551, 0.460505, 0.391044, 12.175674, 139.621033, -237.241241
1715798022.705629, 1.285537, -2.766051, -9.321974, 0.010613, 0.399195, 0.406232, 12.469711, 139.817429, -237.022949
1715798022.739015, 1.988833, -1.537227, -6.249914, -0.309721, 2.283913, 0.232914, 11.997040, 140.054276, -237.446655
1715798022.772273, 0.589423, -2.558055, -12.047174, -0.804189, 0.623643, 1.421926, 11.521881, 139.943405, -237.338394
1715798022.805576, 1.769614, -0.678008, -9.704448, -0.903677, 0.831965, 1.585050, 12.028015, 139.721588, -236.789185
1715798022.838746, 2.325368, -0.649577, -10.582671, -1.459965, 0.824298, 1.271477, 12.122055, 139.365570, -236.726059
1715798022.872335, 2.268955, 0.221613, -10.806229, -1.796186, 0.972238, 0.803723, 11.875290, 138.611877, -236.013931
1715798022.905615, 2.844910, 0.730531, -9.781212, -1.408968, 3.552338, 0.513647, 10.914536, 137.638702, -235.333954
1715798022.938950, 4.852299, -0.293589, -18.726398, -0.155966, 1.073444, 0.588452, 9.862015, 137.486465, -235.812286
1715798022.972369, 4.643404, -3.353528, -9.988160, 1.770030, -1.410183, 0.469648, 10.555252, 137.861481, -236.100815
1715798023.005610, 2.761263, -2.656965, -8.903587, -0.809707, -2.141981, 0.976307, 12.365646, 138.329865, -235.447968
1715798023.038956, 2.547131, -1.456572, -10.569503, -0.859342, -1.953840, 1.207990, 12.838074, 138.072861, -235.326935
1715798023.072307, -2.917335, -0.443526, -14.336180, 0.210756, -0.749648, -0.241167, 14.218002, 137.929062, -234.678131
1715798023.105657, -0.936133, -0.989553, -13.263728, 0.987765, -0.243396, -0.873350, 14.200684, 138.232391, -234.997818
1715798023.138961, -0.988057, -0.375291, -11.749096, 0.818457, -1.102927, -1.032354, 14.515411, 138.637939, -235.279541
1715798023.172290, 0.367211, -0.677110, -10.177452, 0.495073, -1.786394, -1.052516, 14.729782, 138.892059, -235.281799
1715798023.205711, 2.374898, -0.615459, -8.669554, 0.326567, -1.375661, -1.309977, 15.089218, 139.115311, -235.186523
1715798023.238946, 5.089923, -1.139939, -9.127146, 0.346519, -1.492640, -1.161878, 15.015961, 139.064163, -235.126755
1715798023.272302, 8.334216, -0.933140, -8.913613, 0.161410, -2.616688, -0.487382, 15.417801, 139.225357, -234.844666
1715798023.305626, 11.309161, -0.916530, -8.376863, -0.280395, -1.579533, 0.010893, 17.045868, 139.391708, -234.843597
1715798023.339060, 12.477232, -0.799214, -10.434529, 0.211314, 1.195548, 0.779206, 17.215012, 139.117218, -234.934784
1715798023.372332, 11.028142, 0.184952, -10.109517, 0.661991, 0.514207, 1.753785, 17.380814, 139.310791, -235.169525
1715798023.405677, 7.212981, 0.746991, -6.785616, 0.449639, 0.477893, 2.356334, 18.018875, 139.796310, -235.596069
1715798023.439028, 4.630386, 0.625336, -7.123199, 0.019028, 1.151978, 2.611730, 18.835938, 139.927078, -235.739365
1715798023.472279, 2.510470, 0.912191, -8.255806, 0.003906, 0.824453, 2.838275, 19.883301, 139.778503, -235.674927
1715798023.505628, -0.415244, 0.652420, -8.693496, 0.107867, 0.770537, 2.725528, 20.579041, 139.476089, -236.029495
1715798023.538971, -2.161066, 0.319177, -8.660426, -0.110723, 0.636817, 2.643168, 21.604263, 139.161667, -235.621109
1715798023.572298, -4.035577, 0.004788, -9.455301, -0.166088, 1.213331, 2.251109, 22.142380, 138.882004, -235.512527
1715798023.605610, -4.853047, -0.008380, -10.249727, -0.191955, 1.239272, 1.915362, 22.655228, 138.569656, -235.600266
1715798023.638922, -4.577414, 0.594959, -10.832116, -0.011185, 0.974154, 1.384621, 22.731689, 137.972778, -235.519791
1715798023.672268, -3.902698, 0.829591, -10.744579, 0.127642, 0.598597, 1.124600, 22.951538, 137.858826, -234.993011
1715798023.705698, -3.857209, 0.804152, -9.705345, 0.036560, 0.533967, 0.865365, 22.768112, 137.936966, -235.089493
1715798023.738915, -3.534739, 1.010652, -9.771485, -0.193092, 0.831833, 0.476237, 22.600037, 137.721085, -234.896912
1715798023.771734, -2.267159, 1.010353, -10.841095, -0.105666, 0.319344, 0.539377, 22.461334, 137.472656, -234.978592
1715798023.805574, -2.980482, 1.178396, -10.811018, 0.007400, -0.040815, 0.436420, 22.943314, 137.577194, -234.770065
1715798023.838897, -3.503914, 0.547823, -10.644920, -0.031680, -0.001284, 0.190250, 23.048218, 137.533112, -234.546692
1715798023.872225, -3.847632, 0.010924, -10.315867, -0.087425, -0.018498, -0.058259, 22.650589, 137.237122, -234.794220
1715798023.905558, -4.215441, -0.067636, -10.731859, -0.186632, -0.177275, -0.299871, 22.965866, 137.249542, -234.883667
1715798023.938888, -4.131494, 0.218022, -11.473314, -0.200947, -0.101360, -0.456049, 22.734375, 137.260208, -234.573792
1715798023.972241, -4.750395, 1.080084, -12.571504, 0.088751, -0.026886, -0.972538, 22.708328, 137.443298, -234.409714
1715798024.005648, -4.326173, 1.533636, -12.346748, 0.359182, -0.410306, -1.084835, 22.213196, 137.486038, -234.638214
1715798024.038892, -4.302979, 1.803432, -10.888979, 0.190993, -0.761424, -1.140879, 22.195099, 138.101974, -235.016724
1715798024.072259, -4.842722, 1.893664, -10.283545, -0.311349, -0.700587, -1.720327, 22.009430, 137.855881, -234.899567
1715798024.105580, -4.496610, 2.212542, -11.912650, -0.316934, -0.639384, -1.959736, 21.863235, 137.958206, -234.931763
1715798024.139009, -4.144213, 2.325518, -12.524069, -0.262023, -1.074009, -2.248615, 21.279434, 138.137848, -234.718552
1715798024.172228, -2.193388, 2.139070, -13.525743, 0.428844, -1.137349, -2.425990, 21.293350, 138.316299, -234.773438
1715798024.205573, -2.551022, 2.372953, -11.815236, 0.452635, -1.375633, -2.592156, 20.630615, 139.189224, -235.121780
1715798024.238929, -1.190367, 2.557756, -11.120618, 0.266198, -1.265241, -2.746989, 20.055084, 139.401108, -235.363647
1715798024.272250, 3.530699, 1.590348, -10.337564, 0.266056, -0.978881, -2.033635, 19.583847, 139.597488, -234.984283
1715798024.305386, 1.845481, 2.244115, -9.057115, -0.174809, -0.470964, -2.068063, 19.431335, 139.709366, -234.922485
1715798024.338929, 5.963657, 1.038036, -10.162937, -0.092056, -0.459797, -1.607759, 18.933548, 139.309998, -234.613434
1715798024.372330, 6.501155, 0.213084, -10.251523, 0.127770, -0.092730, -1.369630, 18.197983, 138.494339, -234.124115
1715798024.405583, 6.775441, -0.060454, -9.733926, 0.122652, -0.361105, -1.381695, 18.056168, 138.073944, -234.095718
1715798024.438978, 7.662194, -1.506551, -9.871144, 0.196892, -0.500726, -1.451235, 17.583267, 137.554657, -233.450485
1715798024.472242, 9.003395, -2.644695, -9.180117, 0.112579, -0.326081, -1.062672, 17.783310, 135.317581, -233.005829
1715798024.505580, 8.456171, -3.347543, -9.475801, 0.889564, 0.540534, -1.310667, 17.689499, 134.360291, -232.597885
1715798024.538456, 9.247155, -3.647716, -10.513388, 0.447682, -0.183330, 0.433914, 16.670975, 133.938217, -232.733521
1715798024.572382, 3.557484, -2.548927, -5.667524, -0.378933, -0.704307, 0.328383, 17.295700, 134.480515, -233.171524
1715798024.605629, 6.812551, -3.629610, -9.971102, 0.135317, 0.006397, 0.299657, 17.388199, 135.366821, -233.507172
1715798024.638938, 5.116708, -3.005471, -9.036615, 0.300546, 0.451328, 0.555845, 17.454895, 135.962402, -233.945297
1715798024.672268, 0.908600, -2.925565, -8.845827, -0.301678, -0.643781, 0.532719, 17.243958, 137.067810, -234.488739
1715798024.705762, 2.852542, -3.085527, -10.701483, 0.368331, -0.267199, -0.000587, 17.807495, 137.898254, -234.650391
1715798024.739010, 7.185448, -2.165106, -8.293365, 0.240451, 0.312397, 0.632765, 18.196136, 138.728104, -234.625107
1715798024.772268, 7.341221, -1.977760, -9.104999, -0.177718, 0.726131, 1.346924, 17.787247, 139.274551, -235.295288
1715798024.805723, 4.490774, -2.009932, -11.923573, -0.119772, -0.247167, 1.658264, 18.317703, 139.631607, -235.586929
1715798024.838948, 4.868459, -0.632219, -9.870246, 0.055348, -0.272752, 2.097999, 19.170578, 139.892609, -235.762024
1715798024.872492, 3.974375, 0.260968, -8.370728, -0.089615, 1.735875, 1.961983, 20.189926, 140.188477, -235.999374
1715798024.905694, 1.868674, 0.512210, -8.692448, -0.495392, 1.095024, 2.350233, 20.560043, 140.146408, -235.712891
1715798024.939046, -0.601094, 1.596933, -8.778640, -0.512605, 0.140731, 2.273327, 21.519760, 139.467361, -235.820160
1715798024.972386, -1.124227, 1.740285, -8.958953, -0.785638, 0.596666, 2.324944, 21.838318, 138.936508, -235.659561
1715798025.005614, -3.338116, 2.003049, -10.683377, -0.630834, 1.246440, 2.177299, 22.490494, 138.144638, -235.350281
1715798025.039089, -3.891476, 2.229151, -12.158205, -0.296348, 0.853480, 1.862431, 22.683334, 137.615967, -234.778519
1715798025.072294, -3.334075, 2.248904, -11.359140, -0.004931, 0.706086, 1.848851, 22.952911, 137.264618, -234.883972
1715798025.105641, -3.744831, 2.409465, -11.200973, -0.115097, 0.823478, 1.559933, 23.145996, 136.949554, -234.479324
1715798025.138947, -2.626589, 2.342277, -11.181820, -0.101765, 1.081625, 1.576112, 23.309753, 136.593948, -234.027435
1715798025.172286, -2.601150, 1.879149, -11.239580, -0.229929, 1.015318, 1.501636, 23.165161, 136.380234, -234.239136
1715798025.205635, -3.112013, 1.701230, -11.655722, 0.014895, 1.375357, 1.056547, 23.070724, 136.112045, -234.085281
1715798025.238783, -1.566556, 1.838897, -11.088146, 0.047445, 0.906693, 1.040504, 22.693436, 135.950104, -233.560349
1715798025.272504, -1.941997, 1.712602, -11.130344, -0.069182, 0.641584, 1.093264, 22.547363, 135.663086, -233.421326
1715798025.305788, -3.428048, 1.307683, -10.715399, -0.330972, 0.683308, 0.733238, 22.492432, 135.642014, -233.437057
1715798025.338953, -3.682581, 0.591817, -11.784261, -0.347724, 0.396370, 0.581222, 22.289017, 135.188370, -233.109116
1715798025.372293, -5.109825, 0.406266, -12.647221, -0.001609, 0.106331, 0.076482, 22.536545, 134.970581, -233.170273
1715798025.405629, -5.989844, 0.378882, -12.306047, 0.245354, -0.394177, -0.330635, 22.063431, 134.915558, -233.028122
1715798025.439053, -6.513875, 0.954538, -11.957391, 0.352726, -0.277337, -0.908006, 22.313812, 135.174911, -233.155106
1715798025.472366, -5.370943, 1.565509, -11.360637, 0.411678, -0.415879, -1.144544, 22.220444, 135.608414, -233.515518
1715798025.505707, -5.932084, 3.101838, -10.809372, 0.187183, -0.680461, -1.623930, 22.244537, 136.246216, -233.528122
1715798025.538953, -4.425532, 3.533243, -11.040113, 0.331104, -0.766957, -2.277680, 22.011475, 136.747803, -234.024155
1715798025.572395, -3.279158, 3.489250, -10.675147, 0.313604, -1.019981, -2.611908, 21.543686, 137.151215, -234.158920
1715798025.605624, -1.677737, 3.193416, -10.517878, 0.199836, -1.157401, -2.610362, 20.952545, 137.667404, -234.263351
1715798025.639083, -2.015319, 3.413683, -10.490494, 0.092099, -1.177360, -2.802917, 20.530563, 137.922852, -234.493362
1715798025.672359, 1.211915, 3.106776, -11.116129, 0.165375, -1.031872, -2.877442, 20.165146, 138.169739, -234.430191
1715798025.705646, 2.523788, 2.189797, -10.398916, 0.200347, -1.081371, -2.424383, 19.390305, 138.611206, -234.622971
1715798025.739085, 3.178752, 1.344344, -9.648483, -0.075680, -1.037739, -1.925938, 19.073715, 138.337112, -234.612167
1715798025.772295, 0.682198, 2.484732, -10.460566, -0.816197, -1.705105, -2.103815, 18.760315, 138.467743, -234.182068
1715798025.805625, 3.812617, 2.138022, -12.907889, -0.265033, -0.327176, -2.505954, 18.552933, 137.704453, -233.726639
1715798025.839028, 5.743540, 1.042226, -12.493992, 0.017504, -0.400054, -1.908903, 17.872345, 137.766006, -233.725250
1715798025.872328, 4.208258, 1.149516, -11.457003, -0.078346, -1.291927, -1.547430, 17.804703, 137.551346, -233.455002
1715798025.905663, 5.617396, 0.359430, -10.882694, 0.268079, -0.010686, -1.530331, 17.663651, 137.085983, -233.386826
1715798025.938998, 5.821501, 0.115820, -10.321403, 0.363724, 0.064501, -1.164136, 17.257660, 136.884872, -233.143753
1715798025.972336, 5.822399, -0.680701, -9.701155, 0.368784, -0.190645, -0.700520, 17.085983, 136.923309, -233.115082
1715798026.005660, 5.801151, -1.156699, -8.557475, 0.172587, 0.187057, -0.404864, 17.113007, 136.807098, -232.813065
1715798026.038993, 6.172850, -1.638831, -9.282021, -0.042933, -0.163995, -0.140016, 16.667084, 136.667770, -232.721725
1715798026.072323, 7.710526, -1.917756, -9.913042, -0.151421, -0.324121, 0.401445, 17.242462, 136.313232, -232.739746
1715798026.105664, 7.911939, -1.985691, -10.835708, 0.037493, 0.531234, 0.953442, 17.569412, 136.512405, -232.812958
1715798026.139047, 7.311443, -1.755698, -11.134534, 0.200912, 0.465734, 1.395938, 17.607300, 137.032181, -232.882919
1715798026.172331, 6.349572, -1.197400, -10.363003, 0.110343, 0.398294, 1.699104, 17.913788, 137.892349, -233.349594
1715798026.205734, 5.331737, -0.385018, -10.677391, 0.142174, 0.637081, 1.844223, 18.306717, 138.248260, -233.746490
1715798026.239010, 4.411915, 0.064793, -10.170868, -0.005166, 0.484127, 2.193518, 18.406616, 138.266342, -233.974304
1715798026.272438, 2.098218, 0.423474, -9.764901, -0.202333, 0.333180, 2.169263, 19.302277, 138.497437, -234.320847
1715798026.305785, 1.690157, 0.432004, -9.889250, -0.180272, 0.647993, 2.288079, 19.857681, 138.569962, -233.990311
1715798026.339004, -0.049231, 0.298677, -10.474932, -0.309201, 0.567302, 2.066955, 20.207947, 138.263336, -234.326904
1715798026.372334, 0.766743, 0.269048, -10.913819, -0.159445, 0.608054, 2.319782, 21.039337, 137.977005, -234.297348
1715798026.405627, -1.017236, 0.543035, -10.593145, -0.082865, 0.781290, 2.255926, 21.646622, 137.794907, -234.440842
1715798026.438989, -1.545008, 0.893037, -10.008062, -0.028793, 0.935367, 1.976448, 21.817749, 137.721817, -234.004440
1715798026.472342, -0.341623, 0.698508, -9.570821, -0.045830, 0.625836, 2.250299, 22.139359, 137.224365, -234.189056
1715798026.505669, -1.563264, 1.294814, -9.848100, -0.067635, 0.330932, 2.067504, 22.911087, 136.798019, -234.026199
1715798026.539003, -1.300800, 1.506851, -9.455151, -0.038888, 0.483570, 1.957277, 23.233002, 136.943405, -234.002991
1715798026.572324, -1.033547, 1.723825, -9.418640, -0.146658, 0.486330, 1.893130, 23.731522, 136.027725, -233.886566
1715798026.605670, -1.172261, 1.759738, -9.595661, -0.173802, 0.744126, 1.735348, 23.979401, 135.368118, -233.817841
1715798026.639043, -0.771232, 1.950377, -9.780463, -0.299877, 0.203745, 1.690239, 24.102921, 134.916611, -233.509750
1715798026.672337, -1.105373, 1.699734, -10.037092, -0.361957, 0.632527, 1.413550, 24.637283, 134.520309, -233.983688
1715798026.705673, -0.354791, 1.212364, -10.596288, -0.224689, 1.081869, 1.360601, 24.331421, 133.947067, -233.054306
1715798026.738273, -1.148169, 1.979705, -10.250924, -0.120271, 0.392196, 1.311813, 24.397446, 133.681946, -233.219345
1715798026.772459, -1.737592, 2.482488, -9.896582, -0.256855, 0.136986, 1.074299, 24.569855, 133.633850, -233.111664
1715798026.805677, -1.901445, 2.429965, -10.250625, -0.328998, 0.231423, 0.950891, 24.508743, 132.685089, -232.789108
1715798026.839013, -4.018667, 2.249203, -11.731738, -0.448073, 0.055917, 0.685354, 24.667618, 132.257477, -232.798203
1715798026.872454, -4.515614, 2.132186, -12.682236, -0.050274, 0.184464, 0.134278, 24.698761, 131.971008, -232.722900
1715798026.905681, -4.632780, 2.064849, -12.552350, 0.241491, 0.047660, -0.086058, 24.679276, 132.149567, -232.751755
1715798026.939010, -6.757185, 2.713678, -11.575217, 0.145925, -0.125029, -0.562263, 24.759232, 132.504471, -232.667572
1715798026.972343, -4.828805, 2.551321, -11.917139, 0.346595, 0.123242, -1.195529, 24.771484, 132.973190, -232.960312
1715798027.005678, -4.981735, 3.006818, -11.506384, 0.318870, -0.181568, -1.462040, 24.037415, 133.336395, -232.633759
1715798027.038972, -3.978864, 3.137452, -11.910704, 0.407911, -0.695460, -1.719453, 23.938507, 133.785675, -232.803192
1715798027.072342, -4.236689, 3.489399, -11.475109, 0.513876, -0.775312, -2.169182, 23.954529, 134.910034, -233.331100
1715798027.105665, -4.039317, 3.860800, -11.426178, 0.674562, -0.454931, -2.728418, 23.921494, 135.267975, -233.604904
1715798027.139125, -2.912546, 4.100070, -11.184064, 0.650767, -0.795500, -2.823820, 22.934540, 136.144196, -233.842194
1715798027.172313, -2.658013, 3.864391, -11.108198, 0.697248, -1.198093, -3.123368, 22.581665, 137.269882, -234.245560
1715798027.205806, -2.002750, 4.245219, -10.641478, 0.673892, -0.887072, -3.468050, 21.948135, 138.143005, -234.789017
1715798027.239015, -1.368137, 4.209455, -10.211270, 0.594129, -0.734957, -3.602925, 20.796982, 138.463699, -235.126068
1715798027.272376, 0.974739, 4.143016, -9.283068, 0.429876, -0.793164, -3.508610, 19.749084, 139.153961, -235.105270
1715798027.305689, 1.249324, 3.870826, -9.228151, 0.145553, -1.332494, -3.408246, 18.342773, 139.299179, -235.222824
1715798027.339016, 2.153135, 3.976021, -9.387216, -0.033393, -1.846899, -3.356492, 17.824158, 139.563461, -235.418839
1715798027.372372, 5.697601, 3.576638, -8.476821, -0.559341, -1.124765, -3.075140, 17.209122, 138.738113, -234.743820
1715798027.405681, 5.799355, 3.343203, -10.089315, -0.828918, -0.352661, -2.741107, 15.953979, 138.073334, -233.929260
1715798027.439037, 6.804920, 2.470816, -10.941651, -0.935815, -1.411850, -2.186821, 15.653778, 137.084320, -233.529785
1715798027.472369, 7.562086, 1.086818, -12.528708, -0.683544, -1.282561, -1.846001, 15.913071, 135.623260, -232.474121
1715798027.505792, 9.650578, 0.199018, -11.307066, -0.213631, 0.162908, -0.961269, 16.238266, 134.320892, -231.948380
1715798027.538990, 7.541286, -0.180463, -10.949582, -0.232745, 0.299406, -0.819544, 16.346436, 133.245773, -231.169495
1715798027.572325, 8.353370, -0.875230, -10.676493, -0.101025, 0.548177, -0.838952, 16.445984, 132.118454, -230.538834
1715798027.605730, 9.816227, -2.077568, -10.743980, -0.142936, -0.123808, 0.167877, 16.045471, 131.443359, -230.450592
1715798027.639016, 7.851186, -2.155380, -10.750564, -0.080711, -0.323879, 0.524956, 16.517059, 132.255844, -230.243179
1715798027.672373, 7.524078, -2.016367, -10.847230, 0.028177, -0.051454, 0.787679, 16.259293, 132.794922, -230.680511
1715798027.705655, 8.708460, -1.041178, -11.304822, 0.196688, 0.102661, 1.238971, 16.072769, 133.887268, -231.487564
1715798027.738948, 9.538948, 0.146046, -10.917410, 0.131627, 0.816679, 1.829105, 15.700058, 135.375854, -231.901123
1715798027.772061, 9.060707, 0.880617, -11.544242, 0.166741, 0.930738, 2.412514, 15.852859, 136.171555, -232.591125
1715798027.805630, 7.265355, 2.331055, -11.423634, 0.305893, 0.236481, 3.076855, 16.316788, 137.117416, -232.949722
1715798027.839026, 4.610335, 3.177555, -10.454581, 0.236972, 1.043532, 3.017790, 16.903915, 137.616409, -233.684555
1715798027.872362, 3.593547, 3.217807, -10.711359, 0.223168, 1.228205, 3.102330, 17.403473, 138.334747, -233.829285
1715798027.905435, 2.809745, 4.160674, -10.436325, 0.317608, 0.251120, 3.604148, 18.010666, 138.211655, -234.101562
1715798027.939076, 0.518494, 4.183418, -9.588628, 0.258067, 0.118533, 3.492026, 19.928802, 138.295090, -234.448380
1715798027.972402, -0.326360, 4.198532, -9.526977, 0.238708, 0.635417, 3.330594, 21.350494, 138.232941, -235.018188
1715798028.005682, -1.561468, 3.917363, -9.353847, 0.055988, 0.564287, 3.274234, 21.993179, 138.338409, -234.658691
1715798028.039020, -2.743755, 4.044854, -9.914090, 0.002087, 0.222215, 2.930479, 23.396240, 137.798477, -234.999985
1715798028.072357, -3.625570, 3.948039, -10.382007, 0.040237, 0.399299, 2.534119, 24.368759, 136.854050, -234.821304
1715798028.105747, -3.013252, 3.800945, -10.344448, 0.103926, 0.736816, 2.293115, 24.819809, 136.832962, -234.936951
1715798028.139029, -3.227683, 4.279187, -9.731981, -0.145127, 0.782026, 2.140550, 25.170639, 135.899246, -234.799316
1715798028.172361, -3.755904, 4.120720, -10.162039, -0.464003, 0.769403, 1.962891, 25.590393, 135.131226, -234.407639
1715798028.205695, -4.783016, 3.867384, -11.439496, -0.548935, 0.642736, 1.613308, 25.697693, 134.192184, -234.361160
1715798028.239015, -5.217115, 2.793884, -12.731467, -0.262395, 0.232061, 1.506053, 25.933563, 133.865631, -234.135391
1715798028.272362, -6.253206, 2.453907, -11.957691, 0.009510, -0.016228, 1.007409, 26.206940, 133.368195, -234.020233
1715798028.305785, -6.936601, 2.632874, -11.364228, 0.005273, 0.310985, 0.453785, 26.891754, 133.166641, -233.854904
1715798028.339027, -6.536320, 1.845780, -11.518953, 0.066954, 0.382267, 0.224222, 26.346588, 133.070984, -233.832794
1715798028.372366, -7.597400, 1.649455, -10.904092, 0.122509, -0.239108, -0.209178, 26.303284, 133.139664, -233.845688
1715798028.405696, -8.142081, 1.786673, -10.733954, 0.181931, -0.295212, -0.850979, 26.346756, 133.193924, -234.282516
1715798028.439047, -5.875820, 2.607136, -10.921899, 0.268132, -0.363924, -1.227546, 26.220901, 133.979919, -234.479080
1715798028.472363, -5.473594, 3.429395, -10.676344, 0.235826, -0.650450, -1.585911, 26.126480, 134.291626, -234.637817
1715798028.505732, -5.372439, 3.491195, -10.873716, 0.108292, -0.585572, -2.051495, 26.083527, 134.936478, -234.478821
1715798028.539095, -4.759673, 3.484611, -11.046547, 0.171757, -0.359021, -2.384883, 25.010406, 135.898514, -234.899811
1715798028.572387, -4.843171, 3.862147, -11.295245, 0.304694, -0.703533, -2.983064, 24.854172, 136.499130, -234.713791
1715798028.605701, -3.434333, 4.191200, -10.943148, 0.264203, -1.081074, -3.382877, 23.729675, 137.393845, -234.895126
1715798028.639137, -1.009156, 4.404583, -10.705822, 0.175334, -0.957956, -3.469549, 23.064163, 137.989685, -235.384033
1715798028.672360, 1.072153, 4.051887, -11.103260, 0.286107, -0.627696, -3.369844, 22.199371, 138.671982, -235.576202
1715798028.705705, 0.714669, 4.047697, -10.636091, 0.221095, -1.267620, -3.380652, 21.258316, 139.228745, -235.633163
1715798028.739029, 2.238878, 4.115633, -9.467272, 0.025016, -0.827419, -3.466806, 19.720062, 139.681580, -235.592941
1715798028.772324, 4.597466, 2.615366, -9.283218, -0.118376, -0.875053, -3.015966, 18.663910, 139.734253, -235.156326
1715798028.805671, 2.975843, 2.350059, -9.524733, -0.420994, -1.324609, -2.819990, 18.494995, 139.803268, -234.873215
1715798028.839064, 4.319140, 1.943792, -9.800814, -0.514260, -0.662448, -2.945972, 17.600540, 138.912857, -234.456848
1715798028.872479, 6.705860, 0.527921, -11.269657, -0.459654, -0.879730, -2.383768, 16.887802, 137.960190, -233.779587
1715798028.905704, 6.242731, 0.012570, -11.756727, -0.222397, -1.005961, -1.792374, 17.145081, 137.448181, -233.539627
1715798028.939037, 5.340267, -0.329652, -10.932823, -0.249408, -0.564978, -1.831509, 17.114182, 135.981857, -232.899567
1715798028.972474, 6.823774, -1.189769, -10.521618, -0.211607, 0.090440, -1.592142, 16.983353, 134.197876, -232.058517
1715798029.005687, 7.199215, -1.574487, -10.528801, -0.244498, -0.221581, -0.931869, 16.611099, 132.586288, -231.495361
1715798029.039036, 23.324313, -3.873220, -10.534338, -0.262210, -0.876508, 0.821744, 16.671188, 130.464630, -230.723770
1715798029.072414, 1.970428, -1.720683, -9.173833, -0.605920, -0.073296, -0.298113, 17.324951, 131.126389, -230.956070
1715798029.105703, 9.133580, -1.581071, -13.564350, 0.003950, 0.151526, 0.330871, 16.671753, 132.321106, -231.211975
1715798029.139039, 10.905888, -0.405668, -12.887389, 0.402920, 0.623348, 1.252102, 16.851318, 133.263428, -231.382965
1715798029.172343, 7.831434, -0.304812, -11.261726, 0.407452, 0.441132, 1.963359, 16.670822, 135.510559, -232.357956
1715798029.205865, 3.609858, -0.087089, -10.030807, 0.086991, 0.158371, 2.278736, 17.149200, 136.745163, -232.998306
1715798029.239038, 4.782717, -0.376039, -11.071537, 0.286652, 0.912104, 2.359219, 17.369415, 137.448074, -233.647644
1715798029.272372, 3.820248, -0.278027, -9.822362, 0.202677, 0.917794, 2.782537, 17.683548, 138.104126, -234.007538
1715798029.305703, 1.831864, 0.039953, -10.214712, 0.061141, 0.553219, 2.597759, 18.328827, 138.496964, -234.349701
1715798029.339038, 2.444630, -0.182558, -10.021230, 0.040376, 0.404268, 2.725385, 19.455963, 138.572891, -234.695740
1715798029.372373, 2.377293, 0.510863, -10.962750, 0.324021, 0.448846, 3.069430, 19.828735, 138.569611, -234.627457
1715798029.405711, 1.049259, 1.996615, -10.185981, 0.380512, 0.357391, 3.161783, 21.089523, 138.689941, -234.912964
1715798029.439062, -0.450559, 2.736872, -10.043826, 0.385598, 0.652087, 2.825588, 22.353989, 138.396622, -235.092361
1715798029.472385, -0.060753, 3.005920, -9.848848, 0.301842, 0.766473, 2.807816, 22.912155, 138.825027, -235.497879
1715798029.505754, -0.702399, 3.644424, -10.167726, 0.305418, 0.910186, 2.783041, 23.571136, 137.758896, -235.263214
1715798029.539045, -1.944541, 3.934870, -9.472958, 0.156754, 0.958046, 2.582019, 24.251099, 137.535065, -235.349365
1715798029.572377, -2.593968, 3.639785, -9.448567, -0.146335, 0.839430, 2.276839, 24.436401, 137.234390, -235.254944
1715798029.605790, -2.011728, 3.250578, -10.675296, -0.099471, 0.950058, 2.257447, 25.121735, 136.439621, -235.080780
1715798029.639012, -3.045873, 3.314174, -10.448296, -0.204541, 0.804587, 1.894974, 25.644623, 135.824478, -234.921951
1715798029.672378, -2.381782, 2.813786, -11.221174, -0.104859, 0.650544, 1.746291, 25.806122, 135.097076, -234.515671
1715798029.705710, -2.348413, 2.963273, -11.109844, -0.047329, 0.435848, 1.682199, 25.802856, 134.596695, -234.355469
1715798029.739032, -3.063381, 3.512892, -10.965444, -0.006135, 0.409724, 1.619568, 26.088989, 134.040909, -234.352493
1715798029.772351, -4.403835, 3.361459, -10.656292, -0.247044, 0.365837, 1.273108, 26.073242, 133.316864, -234.004837
1715798029.805771, -5.289240, 2.882170, -10.933272, -0.242236, 0.252499, 0.942799, 26.297775, 132.959747, -234.267029
1715798029.839048, -6.594380, 1.835455, -10.937761, -0.310700, 0.090486, 0.574130, 26.613632, 132.877899, -234.132156
1715798029.872409, -7.596054, 1.057938, -11.196334, -0.395305, 0.242316, -0.035063, 26.549805, 132.534958, -233.613754
1715798029.905660, -8.316409, 1.023820, -11.930307, -0.253340, 0.148037, -0.710026, 26.233582, 132.184998, -233.638809
1715798029.939138, -7.184700, 2.087445, -12.626720, 0.062989, -0.381092, -1.266786, 26.001251, 132.454575, -233.530060
1715798029.972381, -5.766435, 3.003975, -11.500398, 0.452850, -0.368366, -1.773508, 26.182068, 133.383438, -233.623001
1715798030.005680, -5.310339, 4.202273, -10.057443, 0.366856, -0.312138, -2.203448, 25.397049, 134.291412, -234.074753
1715798030.039023, -3.344101, 4.820426, -9.910648, 0.077658, -0.756009, -2.464465, 25.335724, 134.826019, -234.005386
1715798030.072387, -2.039860, 5.077354, -10.415076, -0.013080, -0.967376, -2.534303, 25.143372, 135.608994, -234.588379
1715798030.105703, -2.089539, 5.136909, -9.949105, -0.266025, -0.771074, -2.802324, 24.629868, 136.064072, -234.484222
1715798030.139087, -1.996315, 4.672883, -11.049989, -0.128632, -0.637973, -3.143143, 23.976852, 136.352692, -234.568665
1715798030.172390, -0.942418, 4.106056, -10.730064, 0.012492, -0.660465, -3.520565, 22.943008, 136.838181, -234.690689
1715798030.205818, -0.115820, 3.659837, -10.911275, 0.097568, -0.683456, -3.655228, 21.776688, 137.780197, -234.941544
1715798030.239054, 1.087865, 3.486107, -10.678439, 0.060411, -0.711728, -3.705930, 20.096085, 138.216263, -234.900528
1715798030.272417, 3.383755, 3.147777, -10.813113, 0.040490, -0.355656, -3.551539, 19.392365, 138.626480, -234.605957
1715798030.305791, 3.975273, 2.535011, -11.173290, -0.015905, -1.228805, -3.062654, 18.316040, 138.893372, -234.589432
1715798030.339107, 4.617966, 2.200571, -11.780520, -0.094717, -1.780494, -2.719159, 18.158310, 138.438919, -234.144241
1715798030.372412, 6.405088, 1.739238, -11.153388, -0.170548, -0.693389, -2.576557, 17.846100, 138.132462, -234.105362
1715798030.405723, 6.361244, 0.558597, -11.837083, -0.107320, -0.139632, -2.076345, 16.802216, 138.150696, -233.695129
1715798030.439055, 5.856965, -0.030526, -12.261754, 0.298938, -0.428686, -1.890177, 16.083466, 137.476181, -233.702728
1715798030.472422, 7.331794, -0.576105, -9.664345, 0.321988, -0.300435, -1.572951, 16.207352, 137.450134, -233.447113
1715798030.505824, 7.294534, -1.278204, -8.901043, 0.057540, -0.053315, -1.049411, 15.805084, 137.132523, -233.252258
1715798030.539059, 7.060650, -1.838597, -8.898499, -0.095421, -0.322823, -0.576801, 15.654816, 136.456497, -232.918396
1715798030.572413, 7.576601, -2.284368, -9.003395, -0.217550, -0.275558, -0.092387, 15.824280, 136.370178, -232.874435
1715798030.605727, 8.432229, -2.195782, -9.636213, -0.181724, 0.497176, 0.436825, 15.663864, 136.038635, -232.953415
1715798030.639058, 9.766547, -1.821090, -10.358065, -0.207868, 0.349197, 1.148870, 15.639954, 136.126846, -232.764908
1715798030.672394, 9.911097, -1.611447, -11.202918, -0.087915, 0.134517, 1.830791, 16.309586, 137.096191, -233.377121
1715798030.705698, 9.535806, -0.483329, -11.468226, 0.145406, 0.289293, 2.321328, 16.317703, 137.399261, -233.462326
1715798030.739060, 9.194333, 0.628179, -11.433211, 0.290229, 0.962296, 3.074166, 16.922729, 138.221832, -233.667374
1715798030.772400, 7.448810, 1.644817, -11.308413, 0.376857, 0.901009, 3.557927, 18.017120, 138.719193, -234.324829
1715798030.805700, 3.693804, 2.849699, -10.437821, 0.371088, 0.769561, 3.713016, 19.439087, 139.177826, -234.781387
1715798030.839069, 2.208651, 2.646640, -9.649979, 0.214978, 0.408255, 3.785175, 20.099091, 139.109802, -235.136230
1715798030.872400, 0.411503, 2.833388, -9.585336, 0.138184, 0.661611, 3.749071, 22.028366, 138.850494, -235.307434
1715798030.905755, -2.083853, 3.023727, -9.621399, 0.120173, 0.996067, 3.415499, 22.959351, 138.306946, -235.319931
1715798030.939062, -2.128445, 2.786103, -9.852589, -0.043017, 0.924566, 3.083908, 23.560135, 138.331009, -235.363785
1715798030.972506, -3.363704, 3.037793, -10.564415, 0.050569, 0.844181, 2.717750, 24.474609, 137.140152, -235.500732
1715798031.005720, -4.111592, 3.281403, -10.724826, -0.003883, 0.588240, 2.248198, 25.242157, 136.757584, -235.201706
1715798031.039071, -3.299509, 2.798373, -10.762535, -0.000590, 0.695392, 1.826208, 25.351273, 136.066711, -235.345825
1715798031.072452, -3.873369, 3.000533, -10.554539, -0.044119, 1.023093, 1.464415, 25.630295, 135.482559, -235.089752
1715798031.105729, -3.898359, 2.856133, -11.018715, -0.052087, 0.840291, 1.190922, 25.448853, 135.368027, -234.821716
1715798031.139065, -3.217807, 2.976890, -11.329213, -0.092145, 0.300046, 1.204370, 25.740540, 134.942352, -234.526596
1715798031.172397, -3.965546, 3.139995, -11.396849, -0.109894, 0.399844, 0.917679, 25.365463, 134.905624, -234.403076
1715798031.205783, -3.849128, 3.192967, -11.501296, -0.117775, 0.130342, 0.805871, 25.841965, 134.368835, -234.414459
1715798031.239068, -4.816535, 3.327042, -11.809699, -0.070893, 0.262067, 0.488893, 25.497391, 134.417908, -234.245789
1715798031.272449, -4.915745, 2.978686, -11.455956, 0.042729, 0.286841, 0.177501, 25.725418, 134.077881, -234.321548
1715798031.305737, -5.686528, 2.525284, -11.020959, -0.015987, -0.030407, -0.067978, 25.308380, 134.198303, -234.222534
1715798031.339064, -6.810307, 1.777395, -11.150695, -0.139138, -0.179919, -0.449466, 25.579056, 134.126572, -234.085831
1715798031.372514, -7.256077, 2.099864, -11.419444, -0.067617, 0.063265, -1.114210, 25.785553, 134.307358, -234.176987
1715798031.405737, -7.306505, 2.565686, -11.727548, 0.142825, -0.048413, -1.779588, 25.190308, 134.597763, -234.086823
1715798031.439073, -5.793220, 3.106626, -11.447277, 0.365195, -0.705757, -2.085923, 24.553757, 135.421417, -234.119156
1715798031.472404, -5.649268, 4.108151, -10.551396, 0.290840, -0.995600, -2.747965, 24.195038, 136.009659, -234.484818
1715798031.505781, -4.176685, 4.721815, -10.557382, 0.198405, -0.722033, -3.195670, 23.632614, 136.520660, -234.491882
1715798031.539041, -2.269105, 5.045181, -11.069292, 0.063521, -0.674011, -3.373868, 22.820831, 137.379257, -235.023972
1715798031.572407, -1.000926, 4.604499, -11.999888, -0.005110, -1.356908, -3.393701, 22.037750, 138.270447, -234.928162
1715798031.605764, -0.306159, 4.286818, -12.161198, 0.103107, -1.276087, -3.559261, 21.346176, 138.615601, -235.066605
1715798031.639103, 0.979528, 4.197784, -11.909208, 0.217430, -0.890466, -3.665964, 20.155716, 139.193771, -235.130371
1715798031.672384, 2.933196, 3.811719, -11.537957, 0.164280, -0.990844, -3.377800, 19.099762, 139.359543, -235.099747
1715798031.705705, 3.787178, 3.060388, -11.413608, 0.220093, -1.236457, -3.038767, 18.382751, 139.649963, -235.106125
1715798031.739075, 5.353136, 2.083105, -10.230573, 0.249509, -0.883254, -2.581973, 17.682922, 139.324707, -235.277725
1715798031.772395, 4.541801, 0.967257, -9.974693, 0.216621, -1.071072, -2.212387, 17.019867, 139.306473, -234.711411
1715798031.805727, 5.031415, 0.893935, -9.109937, -0.086089, -1.345483, -2.021408, 16.909836, 139.088867, -234.317291
1715798031.839077, 7.576152, -0.132878, -9.821464, -0.255972, -0.668505, -1.690099, 16.633072, 138.795670, -234.333801
1715798031.872471, 9.039608, -0.745046, -10.307188, -0.340410, -0.029046, -1.237135, 16.100189, 137.866684, -234.096191
1715798031.905744, 9.432556, -1.605462, -11.501595, -0.105951, -0.099380, -0.800839, 15.852432, 136.550079, -233.209457
1715798031.939074, 10.509947, -2.453009, -10.737097, 0.015265, -0.188709, -0.097063, 15.401581, 136.695892, -233.505035
1715798031.972469, 8.743924, -2.782362, -10.498874, -0.011125, -0.064393, 0.440606, 15.708282, 136.380493, -233.303726
1715798032.005771, 8.384793, -2.443283, -10.559178, 0.015063, 0.293245, 0.777321, 16.069870, 136.914612, -233.423096
1715798032.039102, 9.531616, -1.874061, -10.523564, 0.027841, 0.395733, 1.366781, 16.715988, 137.541840, -233.851669
1715798032.072380, 9.344868, -0.860566, -10.568305, -0.083206, 0.455590, 2.071150, 17.121277, 138.026779, -233.840378
1715798032.105784, 8.044518, 0.522385, -11.160272, -0.033230, 0.977141, 2.720206, 17.481613, 138.438309, -234.131500
1715798032.139081, 6.090699, 1.208024, -11.039065, -0.086552, 0.439310, 3.062267, 18.309433, 139.068146, -234.582184
1715798032.172439, 5.191677, 1.507748, -10.839748, 0.045186, 0.517197, 3.405957, 19.176666, 138.761581, -234.694565
1715798032.205880, 3.462764, 2.175731, -10.455928, 0.272859, 0.992886, 3.909031, 20.451752, 138.829025, -235.101181
1715798032.239083, 0.512808, 2.362478, -10.292523, 0.147010, 1.069625, 3.941350, 21.661057, 138.641006, -234.936981
1715798032.272415, -0.831536, 2.162862, -10.313772, 0.013574, 0.416973, 3.709928, 22.434631, 138.392609, -234.887878
1715798032.305748, -2.125004, 2.191293, -9.931897, -0.079972, 0.646482, 3.288006, 23.937088, 137.808685, -235.286530
1715798032.339080, -1.586458, 1.907580, -10.780791, 0.056643, 0.769219, 3.107599, 24.913528, 136.709579, -234.980515
1715798032.372461, -2.007239, 3.180996, -10.710461, 0.187136, 0.504890, 3.012417, 26.026825, 135.963135, -234.919479
1715798032.405846, -3.103334, 4.358046, -10.623073, 0.126386, 0.417921, 2.730267, 26.566193, 135.615860, -234.989166
1715798032.439086, -3.510498, 4.842722, -10.581623, 0.234318, 0.800709, 2.167280, 27.256592, 134.449173, -235.243835
1715798032.472418, -3.044826, 4.574721, -10.806528, 0.270874, 0.687496, 1.989585, 27.216797, 134.199448, -235.076462
1715798032.505831, -3.402310, 4.868459, -10.192266, 0.224597, 0.536546, 1.806737, 27.417969, 133.704483, -235.000565
1715798032.539084, -3.687968, 4.513220, -10.149470, -0.032508, 0.889168, 1.481494, 27.074554, 133.307205, -234.668533
1715798032.572571, -3.961805, 4.316596, -10.811167, -0.142891, 0.664598, 1.277290, 27.475800, 132.557343, -234.294098
1715798032.605723, -4.139275, 3.861698, -10.861146, -0.269088, 0.564568, 1.185285, 27.305756, 132.326096, -234.075104
1715798032.639047, -6.655432, 3.174861, -11.428422, -0.358200, 0.835345, 0.557922, 27.293823, 131.368317, -234.032150
1715798032.672417, -7.055413, 2.794333, -11.790396, -0.232460, 0.448125, 0.116309, 26.665375, 131.203659, -233.610184
1715798032.705746, -7.431752, 2.489820, -11.963826, -0.006881, 0.364971, -0.397589, 26.312210, 131.283478, -233.341309
1715798032.739085, -7.432051, 2.703951, -11.499051, 0.061642, 0.266285, -0.997322, 26.185196, 131.597092, -233.245865
1715798032.772188, -6.498163, 3.093009, -11.965771, 0.215209, -0.480764, -1.561635, 25.877243, 131.868011, -233.084366
1715798032.805756, -5.981614, 3.844040, -11.391312, 0.243311, -0.584475, -2.092322, 25.657410, 132.836121, -233.871613
1715798032.839094, -3.946542, 4.453215, -11.558457, 0.272937, -0.383462, -2.522903, 25.511246, 133.387543, -233.870575
1715798032.872426, -3.081487, 4.759074, -11.580604, 0.367581, -0.533452, -2.792117, 24.917068, 134.203415, -233.977631
1715798032.905757, -2.281674, 4.933253, -11.521946, 0.319627, -1.170598, -2.871469, 24.680389, 135.338867, -234.147171
1715798032.939074, -1.959804, 4.589236, -11.037719, 0.237602, -1.174078, -3.093044, 23.839417, 136.017334, -234.484711
1715798032.972413, -1.062128, 4.618714, -10.841993, 0.291087, -0.536465, -3.490688, 23.707153, 137.024597, -234.806732
1715798033.005782, -0.089034, 4.296993, -10.617536, 0.289865, -0.664705, -3.582884, 22.353195, 137.764465, -235.017136
1715798033.039102, 1.388338, 3.535787, -10.484658, 0.275909, -1.191354, -3.435775, 20.914917, 138.388885, -235.074326
1715798033.072444, 1.938555, 3.491644, -9.846154, 0.076039, -1.185505, -3.320196, 20.806015, 138.969681, -235.326355
1715798033.105761, 3.795408, 3.244143, -10.152612, -0.001635, -0.924689, -3.156430, 19.649658, 139.048172, -235.184647
1715798033.139131, 5.277718, 2.268356, -10.343101, -0.092460, -1.261200, -2.553831, 18.628433, 138.887177, -234.714233
1715798033.172395, 3.983353, 1.809268, -11.123910, 0.046449, -1.166996, -2.443484, 18.613708, 139.131729, -234.873505
1715798033.205871, 5.782745, 1.274015, -10.653898, 0.154463, -0.090564, -2.370852, 17.846756, 138.877182, -234.495621
1715798033.239288, 6.330419, 0.547225, -9.866206, -0.189614, -0.500337, -1.933074, 17.154572, 138.666504, -234.433929
1715798033.272424, 6.008698, -0.220267, -10.462063, -0.167844, -0.474737, -1.970526, 16.481659, 138.139999, -234.163605
1715798033.305772, 8.087015, -0.777068, -9.642049, -0.072341, 0.030720, -1.489654, 15.626526, 137.965866, -233.562256
1715798033.338940, 8.246229, -1.263390, -9.226804, -0.303541, -0.312314, -0.875782, 15.032837, 137.084503, -233.412186
1715798033.372396, 8.840889, -1.794155, -9.664644, -0.401243, -0.357457, -0.616628, 14.977539, 136.739227, -233.008789
1715798033.405370, 10.881497, -2.117372, -10.146776, -0.515009, 0.008915, 0.482358, 15.180557, 136.199570, -233.011017
1715798033.438687, 10.115951, -1.624466, -10.457125, -0.487845, 0.541261, 1.058717, 15.442413, 136.064774, -232.868134
1715798033.471897, 11.224616, -0.948852, -10.442610, -0.655905, 0.605225, 1.701138, 15.468719, 136.249802, -232.881668
1715798033.505797, 9.494057, -0.198868, -11.461043, -0.480736, -0.065168, 2.405536, 16.236557, 136.650650, -232.796402
1715798033.538169, 8.070555, 0.266056, -11.853992, -0.155355, -0.364366, 2.788693, 16.912384, 136.709671, -232.950928
1715798033.572401, 7.146991, 1.569698, -11.623849, 0.120160, 0.386091, 3.071502, 18.401993, 137.152802, -233.203430
1715798033.605747, 5.780501, 2.737770, -11.484985, 0.373023, 0.513069, 3.757832, 19.639923, 137.259460, -233.575851
1715798033.639084, 2.634071, 3.827431, -10.526856, 0.297963, 0.145352, 3.792064, 20.327652, 137.509933, -233.848145
1715798033.672417, 1.719935, 3.911976, -9.969605, 0.322202, 0.004327, 3.826181, 21.800385, 137.046844, -234.461670
1715798033.705736, -0.188992, 3.983353, -9.101408, 0.131673, 0.219657, 3.754351, 23.511932, 136.718918, -234.892670
1715798033.739081, -1.926883, 3.940108, -9.828048, 0.140860, 0.117575, 3.452068, 24.387482, 136.200958, -234.272247
1715798033.772425, -2.343923, 3.644424, -10.222044, 0.270737, 0.181488, 3.195126, 25.770844, 135.486633, -234.847672
1715798033.805792, -2.895188, 4.093337, -9.961675, 0.414065, 0.569304, 2.894318, 26.575546, 134.683060, -235.250183
1715798033.839071, -3.045425, 4.524443, -10.126575, 0.325389, 0.416909, 2.583815, 27.201523, 133.932419, -235.010742
1715798033.872430, -3.500323, 4.512023, -10.614992, 0.326047, 0.365585, 2.295662, 27.356094, 133.649780, -234.786331
1715798033.905758, -4.581006, 4.856788, -10.604069, 0.383885, 0.780412, 1.922421, 27.947906, 133.197296, -234.746735
1715798033.939086, -4.809801, 4.538359, -10.554539, 0.309684, 0.697501, 1.553264, 27.651138, 132.408859, -234.993637
1715798033.972420, -5.062988, 4.700117, -10.659285, 0.282318, 0.651095, 1.313445, 27.893326, 132.399643, -234.674835
1715798034.005757, -6.114492, 4.805911, -10.816255, 0.061912, 0.657137, 0.965853, 27.900009, 132.268356, -234.532257
1715798034.039108, -6.585102, 4.358046, -11.313800, 0.004326, 0.534679, 0.527724, 27.218430, 131.708878, -233.866959
1715798034.072438, -7.189937, 3.881001, -11.327716, 0.044773, 0.496112, 0.136968, 27.173813, 131.784241, -233.873718
1715798034.105778, -7.789834, 3.096451, -11.092636, 0.094005, 0.470296, -0.305973, 27.045197, 131.549515, -233.943604
1715798034.139074, -7.938125, 2.761412, -10.810120, 0.135214, -0.029749, -1.002459, 26.816711, 131.825195, -233.721603
1715798034.172423, -6.593781, 2.716371, -10.611251, 0.200198, -0.096024, -1.417309, 26.679565, 132.730591, -233.622391
1715798034.205829, -5.731868, 3.192818, -9.978434, 0.019692, -0.204524, -1.756013, 26.366669, 132.771469, -233.622559
1715798034.239098, -5.246145, 3.284695, -11.052982, -0.013757, -0.115451, -2.223277, 25.753326, 133.552139, -233.691299
1715798034.272464, -4.414459, 3.782839, -11.439795, 0.275888, -0.388908, -2.754633, 25.329590, 134.438049, -234.046143
1715798034.305774, -3.208081, 4.066851, -11.239580, 0.351963, -0.747607, -2.936955, 24.723831, 134.882446, -234.154144
1715798034.339108, -2.761562, 4.547038, -10.755652, 0.388624, -0.788824, -3.191656, 23.735336, 136.223175, -234.426987
1715798034.372426, -1.630900, 4.720468, -10.720786, 0.357698, -0.411928, -3.644639, 22.547012, 137.252792, -234.701599
1715798034.405828, 0.081403, 4.387823, -10.918008, 0.396341, -0.460615, -3.597844, 21.092194, 137.909286, -234.829407
1715798034.439107, 0.773776, 4.068198, -10.942699, 0.360406, -1.035836, -3.541124, 20.646347, 138.530533, -234.882523
1715798034.472428, 1.844732, 3.783587, -10.922049, 0.446379, -1.111438, -3.616301, 19.186768, 139.023285, -234.911316
1715798034.505771, 4.080917, 2.333598, -10.988637, 0.447305, -2.186254, -3.011795, 18.429596, 139.107071, -235.409988
1715798034.539094, 3.398869, 2.991555, -10.005069, 0.121651, -1.773960, -2.833742, 18.495468, 139.380539, -235.097687
1715798034.572475, 4.257339, 2.508824, -9.983821, -0.380754, -0.229143, -3.099907, 17.610641, 139.564331, -235.074585
1715798034.605793, 6.142773, 0.789937, -11.775432, -0.383470, -0.995977, -2.307439, 16.191071, 139.079803, -234.534912
1715798034.639155, 5.432892, 0.605434, -12.302605, -0.097059, -1.171839, -1.886041, 16.198608, 138.821869, -234.593369
1715798034.672435, 5.336077, 0.520739, -10.709264, -0.071837, -0.211533, -1.938210, 15.721008, 138.005829, -233.996246
1715798034.705785, 6.355708, -0.278027, -10.896910, -0.068388, -0.180349, -1.497859, 15.292374, 137.535934, -233.650467
1715798034.739164, 6.657976, -0.849942, -10.353127, -0.006565, -0.149212, -1.092498, 15.024521, 137.109177, -233.648636
1715798034.772438, 5.946898, -1.368885, -9.906159, 0.012282, -0.195255, -0.905503, 14.633270, 136.882004, -233.435822
1715798034.805748, 7.278074, -1.555932, -9.603143, -0.043733, -0.042290, -0.461400, 14.574417, 136.661240, -233.106094
1715798034.839138, 8.410980, -1.582867, -9.527576, -0.117354, -0.219235, 0.145589, 14.277969, 136.333496, -232.907318
1715798034.872474, 8.687660, -1.132757, -9.915287, -0.258413, -0.123879, 0.629421, 14.533112, 136.607758, -232.928650
1715798034.905835, 9.582493, -1.122731, -10.697742, -0.258026, 0.234369, 1.369615, 15.071182, 136.971603, -233.132675
1715798034.939129, 9.629030, 0.009128, -11.488277, -0.161518, 0.624374, 1.918339, 15.674927, 137.105438, -233.494705
1715798034.972417, 8.246678, 1.132607, -11.672182, -0.092789, 0.600563, 2.470005, 15.850540, 137.465332, -233.554794
1715798035.005824, 6.090550, 1.318158, -11.166407, 0.101721, 0.121812, 3.136024, 16.557404, 138.112106, -233.523102
1715798035.038397, 4.518457, 1.780837, -10.402357, 0.205024, 0.589334, 3.534246, 17.986557, 138.277451, -234.149536
1715798035.071595, 1.789067, 2.557007, -10.225336, 0.225297, 1.019589, 3.484298, 19.172348, 138.829437, -234.584991
1715798035.105895, 0.366612, 2.471864, -9.792584, 0.075372, 0.468109, 3.314463, 19.995544, 138.613342, -234.609497
1715798035.139129, -0.077812, 2.295890, -9.728838, 0.004015, 0.546696, 3.192194, 21.117538, 138.277267, -234.546463
1715798035.172519, -0.499341, 2.360533, -9.910050, 0.029052, 1.066642, 3.076516, 22.396500, 137.942856, -234.981461
1715798035.205800, -1.019780, 2.995446, -10.111013, 0.075780, 0.659506, 3.059930, 22.689743, 137.788406, -235.167648
1715798035.239131, -2.057218, 3.259556, -10.053402, 0.142521, 0.687317, 2.767334, 23.773911, 137.249359, -234.909164
1715798035.272544, -2.445078, 3.592051, -9.927856, 0.096447, 0.936451, 2.546724, 24.311691, 136.591599, -234.957245
1715798035.305894, -2.891747, 3.923348, -10.254066, 0.014809, 0.910150, 2.328274, 24.663651, 136.024155, -234.649536
1715798035.339128, -2.655768, 4.139275, -10.442311, -0.110566, 0.453807, 2.176362, 24.824097, 135.450562, -234.941071
1715798035.372491, -3.438822, 4.490624, -10.527155, -0.271009, 0.653512, 1.997153, 25.408218, 134.955032, -234.817886
1715798035.405845, -4.293252, 4.243274, -11.134684, -0.359270, 0.816202, 1.759627, 25.657654, 133.980377, -234.218979
1715798035.439220, -5.604527, 3.846435, -11.681310, -0.361934, 0.335835, 1.375737, 25.860168, 133.790848, -233.949570
1715798035.472504, -6.202329, 3.329886, -12.186337, -0.226543, 0.259723, 1.016740, 25.976440, 133.227921, -234.165146
1715798035.505872, -6.887819, 2.910601, -11.894244, -0.171181, 0.008948, 0.745732, 26.024460, 132.785645, -234.009354
1715798035.539206, -7.494001, 2.588731, -11.686846, -0.135597, 0.228175, 0.107576, 26.224228, 132.365189, -233.563583
1715798035.572539, -7.863007, 2.196979, -11.890653, 0.022188, 0.106235, -0.448952, 25.969070, 132.540527, -233.823639
1715798035.605856, -7.378331, 2.097620, -11.670835, 0.126333, -0.178350, -0.921298, 25.785919, 132.470764, -233.691452
1715798035.639256, -7.129035, 2.554314, -11.690288, 0.294014, -0.461782, -1.605130, 25.519104, 133.146286, -233.909088
1715798035.672553, -5.925649, 3.114407, -11.488726, 0.355002, -0.483252, -1.991674, 25.409454, 133.744400, -233.863541
1715798035.705892, -5.151723, 3.638738, -11.491121, 0.416701, -0.439187, -2.300537, 24.954926, 134.659073, -234.103668
1715798035.739244, -4.398448, 4.614375, -11.200524, 0.471706, -0.457167, -2.842213, 24.375259, 135.657471, -234.216537
1715798035.772556, -2.801665, 4.685602, -11.156082, 0.494069, -0.721891, -3.112629, 24.170593, 136.272049, -234.438660
1715798035.805877, -2.115876, 4.750545, -11.068394, 0.559796, -0.792407, -3.254340, 23.059402, 137.650604, -235.032227
1715798035.839237, -2.537106, 4.944326, -10.877157, 0.464034, -1.161665, -3.744973, 21.847504, 138.430450, -235.118698
1715798035.872569, -0.348805, 4.377349, -10.825832, 0.350397, -1.531371, -3.810613, 20.856964, 139.248779, -235.534821
1715798035.905874, 1.112107, 4.411017, -9.992949, 0.206866, -0.669585, -3.817763, 20.034439, 139.621414, -235.447144
1715798035.939197, 2.079813, 3.854964, -10.105177, 0.029253, -0.652902, -3.655173, 18.303741, 139.645126, -235.136581
1715798035.972554, 3.024176, 3.180847, -10.238953, -0.164565, -1.221525, -3.183619, 16.996826, 139.536041, -235.001999
1715798036.005907, 4.704457, 2.720561, -9.928156, -0.142852, -0.316959, -2.852094, 16.286484, 139.587234, -234.799011
1715798036.039102, 4.743961, 1.716044, -10.674398, 0.006045, -0.452884, -2.115643, 15.112320, 139.313065, -234.732178
1715798036.072570, 4.224868, 1.361702, -10.184485, -0.147287, -1.375696, -1.940449, 15.023972, 138.503616, -234.299683
1715798036.105945, 6.298995, 0.707487, -10.190022, -0.089247, -0.632983, -1.760733, 15.175461, 138.268555, -233.664062
1715798036.139260, 8.113800, 0.212336, -9.557204, -0.210999, -0.207868, -1.243835, 14.473663, 137.362137, -233.494080
1715798036.172539, 7.814225, -0.363470, -10.043526, -0.394386, -0.403976, -1.049199, 14.306351, 135.519073, -233.277863
1715798036.205942, 9.349507, -1.533636, -10.728118, -0.247445, -0.522766, -0.511724, 14.246429, 134.790894, -232.745041
1715798036.239247, 8.978256, -2.002002, -10.924144, -0.125304, 0.095288, -0.076206, 14.455933, 134.704849, -232.635025
1715798036.272608, 8.223933, -2.420388, -10.954370, 0.048124, 0.367314, 0.211783, 14.355499, 134.755600, -232.395767
1715798036.305840, 8.411279, -1.915661, -10.460267, 0.071091, -0.020630, 0.841511, 14.272156, 135.251846, -232.668915
1715798036.339164, 9.122208, -1.513884, -10.154109, -0.074864, -0.111496, 1.433343, 14.750412, 135.733139, -232.969437
1715798036.372495, 8.666711, -0.584784, -10.689063, -0.194862, 0.405849, 1.819858, 15.460388, 136.506836, -233.154709
1715798036.405832, 8.025663, 0.136320, -11.658715, -0.232417, 0.056587, 2.333693, 16.017990, 137.472687, -233.572464
1715798036.439126, 7.456442, 0.779612, -11.832594, 0.073738, 0.320297, 2.811381, 17.303940, 137.648849, -233.581467
1715798036.472526, 5.348497, 1.942595, -10.947786, 0.331511, 1.274337, 3.646121, 17.778534, 137.903854, -233.918976
1715798036.505931, 0.664092, 3.042581, -10.564864, 0.267941, 0.366334, 3.579019, 18.635452, 138.511993, -234.146515
1715798036.539171, 0.324115, 2.810793, -9.884162, 0.263518, 0.065831, 3.455716, 20.651703, 138.402496, -234.641693
1715798036.572609, -0.035015, 3.114407, -9.515605, 0.126505, 0.592664, 3.519120, 21.293549, 138.242538, -234.720764
1715798036.605870, -1.710507, 3.504213, -9.937733, 0.058255, 0.701689, 3.271234, 22.436615, 137.971558, -235.202316
1715798036.639170, -2.439093, 3.713856, -10.047866, 0.102823, 0.775048, 2.876171, 23.491852, 137.226944, -235.192154
1715798036.672441, -1.419462, 3.880552, -10.035296, 0.125113, 0.763038, 2.806648, 24.099396, 136.977005, -235.019104
1715798036.705775, -2.079813, 4.997597, -10.324995, 0.085063, 0.765615, 2.726447, 24.704086, 136.287750, -234.966522
1715798036.739189, -2.009483, 5.243451, -10.270826, 0.032982, 1.105987, 2.427736, 25.022263, 135.567749, -234.796677
1715798036.772517, -2.465579, 5.386654, -10.782586, -0.061855, 0.913737, 2.319570, 25.764465, 135.016205, -234.603653
1715798036.805868, -3.018490, 5.238513, -10.811167, -0.030385, 0.709363, 2.246689, 25.808640, 134.708237, -234.482880
1715798036.839148, -3.903297, 5.332486, -10.513089, -0.278312, 1.247940, 1.991268, 25.991135, 133.954971, -234.089462
1715798036.872484, -4.800075, 4.935647, -10.706571, -0.408987, 2.039203, 1.533399, 25.362000, 132.942032, -233.488785
1715798036.905887, -6.008249, 3.195511, -12.032809, -0.475649, 1.193575, 1.280382, 25.066177, 132.452972, -233.354279
1715798036.939230, -7.454048, 2.303372, -12.157606, -0.352384, 0.236555, 0.833904, 24.776672, 131.738434, -232.747192
1715798036.972480, -8.980052, 2.033874, -12.500426, -0.169745, 0.317953, -0.022961, 24.819458, 131.879791, -232.498840
1715798037.005916, -8.076390, 2.096872, -13.192201, 0.118319, -0.266937, -0.591414, 24.433304, 131.550797, -232.636383
1715798037.039166, -7.323713, 2.786103, -12.479776, 0.286461, -0.603569, -1.236040, 24.471725, 131.988937, -232.833405
1715798037.072480, -6.386533, 3.728371, -12.221502, 0.317559, -0.570092, -1.742671, 24.563934, 132.488068, -232.718170
1715798037.105853, -5.433042, 4.590732, -12.246641, 0.406933, -0.503587, -2.299135, 24.157959, 133.289597, -233.302368
1715798037.139240, -2.804807, 5.015254, -11.876587, 0.496916, -0.664348, -2.488496, 24.283615, 134.255203, -233.365280
1715798037.172004, -2.556708, 5.357625, -11.127351, 0.483247, -0.571766, -2.724885, 23.361618, 135.143021, -233.406250
1715798037.205247, -2.141164, 5.200954, -10.832116, 0.485799, -0.731504, -3.040497, 22.608124, 136.063370, -234.113037
1715798037.239154, -0.751330, 4.756979, -10.148871, 0.503653, -0.751697, -3.250320, 22.474258, 136.381180, -234.030014
1715798037.272625, -0.508618, 4.420444, -9.587132, 0.426756, -0.508049, -3.546648, 21.395737, 137.626709, -234.679626
1715798037.305840, 0.420781, 4.199579, -9.622446, 0.385218, -0.506749, -3.763338, 19.735611, 138.096252, -234.613892
1715798037.339116, 2.584092, 3.569156, -9.231593, 0.336987, -0.433182, -3.689300, 18.266937, 138.460800, -234.679840
1715798037.372593, 3.295020, 3.312528, -9.504083, 0.248853, -0.655878, -3.429456, 17.566956, 138.668930, -234.494308
1715798037.405817, 4.398148, 3.299360, -9.620650, 0.099401, -0.893936, -3.130446, 16.165710, 138.471680, -234.478455
1715798037.439151, 5.316325, 2.561197, -10.140043, -0.027078, -0.740568, -2.925575, 15.274780, 138.220596, -234.272858
1715798037.472483, 6.813299, 1.494880, -10.983250, -0.025126, -1.427458, -2.070507, 14.990982, 137.938309, -234.138641
1715798037.505857, 5.764190, 1.022174, -11.150994, 0.119360, -0.824223, -1.888110, 14.982162, 137.553986, -233.390976
1715798037.539116, 5.844246, 0.289100, -11.254693, 0.349159, 0.184739, -2.100752, 13.995300, 137.119644, -233.420792
1715798037.572491, 7.507618, -0.435146, -10.541670, 0.290045, -0.442430, -1.338494, 13.695267, 136.948822, -233.528320
1715798037.605895, 6.932261, -0.354791, -10.031256, 0.283223, -0.517414, -1.080240, 13.352921, 136.577332, -233.126755
1715798037.639184, 7.820061, -0.426766, -8.927978, 0.119682, -0.398856, -0.862627, 13.126846, 136.135315, -233.034241
1715798037.672505, 8.512434, -1.018583, -8.820688, -0.187040, -0.433333, -0.240598, 13.142258, 135.900085, -232.824051
1715798037.705822, 10.487501, -1.286734, -9.414899, -0.250873, -0.374198, 0.613471, 13.386185, 135.501312, -232.917664
1715798037.739156, 9.688736, -0.897676, -9.729138, -0.314485, 0.405865, 1.083712, 13.683731, 135.711227, -232.724792
1715798037.772489, 10.591499, -0.586879, -11.575815, -0.281670, 0.840576, 1.604600, 13.752823, 136.259903, -232.982239
1715798037.805828, 9.287258, -0.334889, -12.761244, 0.228350, 0.488010, 2.464981, 14.039398, 136.628265, -232.824921
1715798037.839141, 7.696161, 0.206949, -11.523293, 0.299862, 0.715407, 2.680952, 14.932907, 137.868973, -233.471603
1715798037.872514, 6.592285, 0.886154, -10.699388, 0.195255, 0.912062, 2.801002, 15.519608, 138.504181, -234.222885
1715798037.905802, 5.511452, 1.405247, -10.432285, 0.164875, 0.382405, 3.145142, 16.268036, 138.865219, -234.439804
1715798037.939164, 4.102315, 2.150741, -9.486575, 0.073748, 0.152399, 3.379681, 17.687439, 138.980911, -234.735733
1715798037.972463, 1.798794, 2.286163, -8.929175, -0.067138, 0.425882, 3.356554, 19.267334, 139.038605, -235.174057
1715798038.005916, 0.424522, 2.500744, -9.192088, -0.137934, 0.576860, 3.271472, 20.932892, 138.773972, -235.291443
1715798038.039157, 0.394894, 2.419790, -9.506627, -0.000278, 0.358777, 3.420934, 21.533203, 138.431625, -235.214020
1715798038.072487, -0.936731, 3.200150, -9.293692, -0.000216, 0.598861, 3.355396, 22.523010, 138.141418, -235.491440
1715798038.105872, -1.666664, 3.929783, -9.531167, -0.097870, 0.604268, 3.140765, 23.716873, 137.225479, -235.142593
1715798038.139161, -2.539799, 4.601356, -10.325593, -0.226960, 0.316698, 2.984870, 24.380173, 136.642395, -235.351959
1715798038.172492, -3.487753, 4.627393, -10.437522, -0.250035, 0.651368, 2.485955, 25.747406, 135.506622, -234.791351
1715798038.205906, -3.296516, 4.409970, -10.782586, -0.227897, 0.639155, 2.283559, 26.033752, 134.586868, -234.851944
1715798038.239125, -4.155736, 4.520851, -11.210999, -0.337813, 0.357310, 1.997011, 26.738464, 133.844437, -234.506744
1715798038.272514, -4.637120, 4.352210, -12.018443, -0.235550, 0.362207, 1.707786, 26.781616, 133.305374, -234.563751
1715798038.305923, -5.583578, 3.828478, -12.206987, -0.264028, 0.496767, 1.383739, 27.010559, 132.530777, -234.161514
1715798038.339165, -6.705111, 3.381959, -12.661885, -0.031738, 0.588095, 0.932707, 26.705185, 132.312561, -234.163864
1715798038.372527, -7.695114, 2.873192, -12.104335, 0.192650, 0.487879, 0.340104, 26.795547, 132.027313, -233.750366
1715798038.405805, -7.637653, 2.114379, -10.841993, 0.220958, 0.375140, -0.121353, 26.390289, 132.010300, -233.805496
1715798038.439167, -7.728034, 1.955464, -10.442759, 0.172789, 0.091107, -0.806410, 26.179398, 132.284317, -233.526154
1715798038.472499, -7.250540, 2.345270, -10.447099, 0.140289, -0.185056, -1.342817, 26.184860, 132.670975, -233.623962
1715798038.505857, -6.097882, 3.394978, -10.492738, 0.146223, -0.164359, -1.849815, 25.854141, 133.394226, -233.962326
1715798038.539167, -5.043685, 3.829825, -10.955867, 0.171655, -0.177869, -2.397493, 24.803436, 133.906097, -233.646698
1715798038.572532, -4.046201, 4.185364, -11.630882, 0.279203, -0.645360, -2.616537, 24.399521, 134.909149, -234.086182
1715798038.605824, -3.700688, 4.703708, -11.480197, 0.303579, -0.591014, -2.998884, 24.118896, 135.595566, -234.441452
1715798038.639150, -2.287959, 4.735581, -11.610831, 0.384886, -0.520405, -3.356413, 23.099686, 136.549591, -234.374100
1715798038.672500, -1.452831, 4.585046, -11.600506, 0.419984, -0.825805, -3.481227, 21.825180, 137.337616, -234.500702
1715798038.705880, -0.702997, 4.607940, -11.261576, 0.321651, -0.691966, -3.735648, 21.609222, 137.642853, -234.557831
1715798038.739163, 1.264438, 4.315399, -11.162816, 0.412547, -0.366048, -3.809529, 20.000305, 138.444611, -234.972687
1715798038.772501, 2.544438, 3.577685, -10.664223, 0.344937, -1.055200, -3.393802, 18.204742, 138.795120, -234.879425
1715798038.805823, 2.563741, 3.503914, -10.009259, 0.263385, -1.063132, -3.379090, 17.544769, 138.936066, -234.884308
1715798038.839153, 4.985925, 2.757222, -9.219322, 0.220349, -0.653012, -3.312537, 16.296738, 139.160461, -234.983566
1715798038.872503, 5.289839, 2.116474, -9.799617, -0.050130, -1.656293, -2.432536, 15.856949, 138.787186, -234.479767
1715798038.905054, 4.620360, 2.113033, -10.280253, 0.008425, -1.105400, -2.477380, 15.231750, 138.656998, -234.283401
1715798038.939153, 6.108057, 1.221941, -10.047118, -0.154340, -0.498201, -2.295007, 15.063354, 138.086411, -234.029053
1715798038.972514, 7.021146, 0.418087, -11.069442, -0.009986, -0.633591, -1.689262, 14.345673, 137.583817, -233.702347
1715798039.005838, 7.816769, 0.267851, -10.023475, -0.045072, -0.497771, -1.344100, 13.613678, 136.838928, -233.197495
1715798039.039224, 7.952341, -0.862062, -10.432734, -0.141581, -0.254023, -1.106732, 13.794235, 136.469177, -233.008957
1715798039.072508, 8.390480, -1.572093, -10.427048, 0.002885, -0.045779, -0.548011, 13.423553, 135.930740, -232.633392
1715798039.105888, 8.782680, -1.674146, -9.715521, -0.028432, -0.007098, -0.100104, 13.566116, 135.423798, -232.711884
1715798039.139202, 10.054600, -1.428291, -9.838074, -0.094155, 0.121276, 0.497231, 13.499557, 135.925598, -232.962219
1715798039.171646, 11.299285, -0.516699, -10.267235, -0.185925, 0.199837, 1.130198, 14.048965, 136.033051, -232.965530
1715798039.205942, 11.693431, 0.042647, -10.921899, -0.177582, 0.318139, 2.193081, 14.219406, 136.869507, -232.876282
1715798039.239210, 10.376171, 0.807893, -11.407772, -0.000158, 0.391128, 2.895396, 15.325729, 137.328384, -233.158203
1715798039.272492, 7.478289, 1.664718, -11.156680, 0.193212, 0.432577, 3.328869, 15.861908, 137.714325, -233.515091
1715798039.305863, 4.775534, 2.569876, -10.417620, 0.174943, 0.856747, 3.549939, 17.295410, 138.292099, -233.991882
1715798039.339176, 2.315792, 2.762161, -10.641777, 0.107497, 0.766618, 3.467386, 18.492371, 138.622711, -234.560547
1715798039.372602, 1.997812, 2.876783, -10.723629, 0.176086, 0.465895, 3.541158, 19.161423, 138.507095, -234.444077
1715798039.405845, 0.535254, 3.309535, -10.253618, 0.311945, 0.817053, 3.700882, 20.656906, 138.553192, -234.911072
1715798039.439175, -1.255908, 4.049493, -9.733477, 0.316437, 1.018041, 3.402515, 22.192123, 138.267288, -235.068451
1715798039.472568, -0.597054, 4.443040, -9.818471, 0.200014, 0.769027, 3.276154, 22.937134, 137.898605, -234.920593
1715798039.505931, -0.922665, 4.956596, -10.076746, 0.083586, 1.133829, 3.308189, 23.713760, 137.737900, -235.453232
1715798039.539172, -2.588132, 5.229535, -10.286538, -0.087261, 1.198259, 2.947335, 24.385788, 136.875793, -235.092239
1715798039.572492, -2.898630, 4.685602, -10.736199, -0.206776, 0.906923, 2.696367, 25.100891, 136.170929, -234.992828
1715798039.605863, -3.591751, 4.513968, -11.361834, -0.294563, 0.967688, 2.425231, 25.186951, 135.645615, -234.721878
1715798039.639180, -5.087529, 4.405780, -11.382633, -0.489945, 1.042260, 2.041803, 25.545059, 134.720490, -234.220490
1715798039.672514, -5.824644, 3.743035, -12.055105, -0.489019, 0.880570, 1.650631, 25.486938, 133.581024, -233.746613
1715798039.705868, -5.885247, 3.372832, -12.410045, -0.299822, 0.502216, 1.390003, 25.284439, 133.089584, -233.580399
1715798039.739178, -7.381922, 3.349189, -12.067225, -0.203927, 0.166108, 0.753637, 25.355408, 132.673111, -233.452271
1715798039.772507, -7.339724, 2.676269, -11.764658, -0.130892, 0.158735, 0.210990, 25.525604, 132.467316, -233.515274
1715798039.805848, -7.167791, 2.350807, -11.430068, -0.083602, 0.358878, -0.347788, 25.460907, 132.542725, -233.237793
1715798039.839181, -7.279869, 2.385822, -11.997195, -0.017492, -0.255313, -1.049488, 25.067932, 132.556976, -232.836777
1715798039.872517, -6.861034, 2.686893, -12.463466, 0.232680, -0.521908, -1.618521, 25.102341, 132.984741, -233.089233
1715798039.905854, -5.806388, 3.511097, -12.046875, 0.402228, -0.175612, -2.238598, 24.425995, 133.641800, -233.524963
1715798039.939186, -4.561702, 4.141819, -12.067824, 0.545723, -0.744539, -2.729571, 24.290680, 134.154846, -233.597015
1715798039.972519, -3.419219, 4.675577, -11.847108, 0.524083, -1.092024, -2.990635, 23.610947, 135.129395, -233.915771
1715798040.005915, -1.938106, 5.091419, -11.481693, 0.537637, -0.764044, -3.322758, 23.326782, 136.545792, -234.368927
1715798040.039207, -0.699107, 4.905270, -11.280131, 0.536579, -0.701278, -3.436278, 21.886841, 137.240372, -234.408279
1715798040.072514, 0.193631, 4.762217, -11.086052, 0.488282, -1.000649, -3.399213, 21.373291, 138.084702, -234.697891
1715798040.105903, 0.282516, 4.778378, -10.484808, 0.371818, -0.942364, -3.715386, 19.977539, 138.928192, -234.847244
1715798040.139169, 2.777124, 4.228908, -10.427347, 0.355852, -0.684592, -3.674217, 18.625748, 139.308975, -234.916107
1715798040.172605, 3.570054, 3.584120, -10.117597, 0.242833, -1.064302, -3.332392, 17.937729, 139.131714, -234.807938
1715798040.205861, 3.264644, 3.228132, -10.397569, 0.266109, -1.030892, -3.289247, 16.784042, 139.288361, -235.031998
1715798040.239192, 5.432144, 2.589030, -9.565434, 0.202833, -0.826963, -3.036776, 15.510208, 139.056915, -234.662399
1715798040.272537, 5.630115, 1.792658, -10.018088, 0.111017, -1.148028, -2.417961, 14.925156, 139.131927, -234.487595
1715798040.305899, 5.669918, 1.438766, -9.123405, -0.032306, -0.782297, -2.363483, 14.815262, 138.406097, -234.027191
1715798040.339193, 7.234230, 0.240767, -9.338733, -0.190560, -0.539653, -2.034767, 14.446594, 138.059601, -233.890747
1715798040.372549, 6.584055, -0.546626, -10.129418, -0.178983, -0.874086, -1.571241, 14.134354, 136.880112, -233.060471
1715798040.405881, 6.639869, -0.945410, -9.780015, -0.213009, -0.386131, -1.499383, 13.596909, 136.512115, -233.089005
1715798040.439199, 8.107216, -1.687613, -10.418369, -0.193740, 0.002871, -1.073857, 13.109131, 135.312759, -232.497345
1715798040.472509, 8.841787, -1.511489, -10.751761, -0.038701, -0.078213, -0.476885, 12.787659, 134.822357, -232.477432
1715798040.505849, 10.036194, -1.339705, -10.828525, -0.023323, 0.044185, 0.005063, 12.872818, 134.733810, -232.385056
1715798040.539151, 11.688493, -1.393425, -10.807277, 0.025395, 0.108170, 0.815300, 13.154114, 135.192612, -232.641434
1715798040.572529, 11.442638, -0.427515, -10.636391, -0.020185, 0.528926, 1.711232, 13.312408, 135.923630, -232.992279
1715798040.605941, 11.189152, 0.422427, -10.905439, -0.036361, 0.667134, 2.315114, 13.823776, 137.103653, -233.466751
1715798040.639220, 10.120590, 1.271022, -11.254693, 0.051763, 0.379473, 3.055804, 14.057465, 137.286697, -233.639999
1715798040.672500, 7.419781, 2.394651, -10.402657, 0.143545, 0.846718, 3.738074, 15.407074, 138.033066, -234.492630
1715798040.705855, 4.573524, 3.082984, -10.071509, 0.073288, 1.181361, 3.828455, 16.682755, 138.794525, -234.963791
1715798040.739188, 2.521843, 3.484162, -10.048015, -0.065167, 0.938333, 3.735182, 17.059982, 138.857407, -234.913666
1715798040.772520, 1.432930, 2.906262, -10.317363, -0.078790, 0.708205, 3.721990, 18.451370, 139.109528, -235.110886
1715798040.805846, 0.376039, 2.919729, -10.302100, -0.017426, 1.112500, 3.631031, 19.854782, 138.556961, -235.352219
1715798040.839190, -1.873463, 3.214814, -11.110293, -0.031641, 1.096737, 3.198101, 20.847214, 138.382965, -235.146469
1715798040.872409, -1.430386, 3.021034, -11.687595, 0.091739, 1.110890, 2.851598, 21.613632, 138.134613, -235.365280
1715798040.905642, -1.482759, 3.863942, -11.376199, 0.166008, 1.445291, 2.583765, 22.055847, 137.988586, -235.179626
1715798040.939182, -1.589151, 4.508731, -11.038916, -0.016158, 0.934705, 2.519654, 22.551178, 137.686798, -234.953400
1715798040.972072, -2.174384, 4.384083, -11.379042, -0.085654, 0.654122, 2.338204, 22.859192, 137.050186, -234.830307
1715798041.005848, -2.717868, 4.631733, -11.049690, -0.157720, 1.160569, 1.972670, 23.539612, 136.552780, -234.831070
1715798041.039282, -3.200000, 4.168006, -11.202021, -0.298136, 0.867951, 1.830175, 23.637451, 136.039932, -234.446625
1715798041.072507, -4.264821, 3.644873, -11.291055, -0.340152, 0.599181, 1.668333, 23.689606, 135.696091, -234.133575
1715798041.105862, -6.440552, 2.879776, -10.949283, -0.616054, 1.822099, 0.861784, 23.706955, 134.726196, -233.806335
1715798041.139185, -6.824672, 1.668759, -12.579734, -0.489696, 0.779490, 0.519646, 22.701248, 134.507446, -233.139084
1715798041.172518, -6.880038, 0.957980, -13.013982, -0.147042, -0.317026, 0.275217, 22.503860, 134.410370, -232.988892
1715798041.205866, -7.932140, 0.929848, -11.615020, 0.104039, -0.191597, -0.499750, 22.684525, 134.470551, -232.628983
1715798041.239186, -6.356456, 1.182137, -11.555315, 0.167240, -0.343648, -1.302816, 22.648102, 134.497009, -232.869965
1715798041.272520, -5.579088, 2.087744, -11.482890, 0.224119, -0.506782, -1.800924, 22.416962, 134.875488, -233.480835
1715798041.304987, -3.815609, 3.255216, -11.686098, 0.288335, -0.660320, -2.198217, 22.262222, 135.182327, -233.032181
1715798041.339199, -2.752135, 3.960907, -11.793688, 0.409013, -0.787389, -2.588442, 21.675873, 135.979401, -233.687012
1715798041.372545, -1.352125, 4.470124, -11.735030, 0.467959, -0.771380, -2.773763, 21.147797, 136.931152, -234.062164
1715798041.405858, -0.491560, 4.570980, -11.307066, 0.438309, -0.975917, -2.785006, 20.720184, 137.184769, -234.085709
1715798041.439217, -0.640748, 4.275296, -11.553968, 0.493560, -1.154081, -3.149871, 19.813354, 137.882202, -234.396652
1715798041.472523, 0.359729, 3.493739, -11.350312, 0.623524, -1.375008, -3.262009, 19.236847, 138.522598, -235.026428
1715798041.505950, 0.017508, 3.448698, -10.018238, 0.465589, -0.986453, -3.477496, 17.791748, 139.010239, -235.029388
1715798041.539198, 1.678635, 2.502988, -10.814908, 0.426438, -0.814792, -3.815457, 17.517471, 139.214355, -235.113159
1715798041.572617, 3.884143, 1.980603, -11.080665, 0.453801, -0.855737, -3.402793, 15.893631, 139.325150, -235.101807
1715798041.605931, 4.931008, 2.946664, -11.189002, 0.400127, -0.767412, -3.094501, 14.738464, 139.268860, -234.856247
1715798041.639172, 7.261015, 2.022801, -11.154885, 0.144843, -1.607655, -2.273124, 13.988052, 139.115494, -234.981430
1715798041.672534, 7.199364, 1.504606, -11.768698, 0.371244, -1.199846, -1.977892, 14.110565, 138.577057, -234.635178
1715798041.705863, 7.753921, 1.432032, -10.206033, 0.294834, -0.273091, -1.903783, 13.355881, 138.380219, -234.269684
1715798041.739301, 9.790938, 0.130484, -9.356839, 0.090113, -0.534546, -1.256938, 13.354233, 138.149902, -234.218918
1715798041.772552, 8.354118, -0.480935, -9.669133, 0.071221, -0.760929, -1.020607, 12.968781, 137.853119, -234.020340
1715798041.805870, 8.791808, -1.178546, -9.061155, 0.022472, -0.299652, -0.891364, 12.968643, 137.175949, -233.511108
1715798041.839204, 9.853935, -1.770213, -9.688436, -0.074353, 0.174827, -0.471807, 12.925537, 136.879379, -233.582596
1715798041.872575, 10.413730, -2.100762, -10.415825, 0.016255, -0.190911, 0.466071, 12.556091, 137.085800, -233.569092
1715798041.905552, 10.166229, -1.375768, -9.534160, -0.152540, 0.044441, 0.881387, 13.240463, 137.221939, -233.616486
1715798041.939255, 10.190470, -0.917727, -10.105776, -0.252072, 0.741889, 1.287538, 13.382812, 137.855331, -233.682068
1715798041.972586, 9.928904, -0.277278, -10.587309, -0.226323, 0.574369, 2.085276, 13.569504, 138.050919, -233.925888
1715798042.005865, 8.971373, 0.157868, -10.501866, -0.088934, 0.716043, 2.718798, 14.205460, 138.684494, -234.283936
1715798042.039272, 6.414066, 1.269675, -10.801590, 0.117723, 0.807078, 3.267730, 15.677078, 139.085526, -234.528442
1715798042.072604, 4.363283, 2.239626, -10.642975, 0.333506, 0.652178, 3.721090, 15.994751, 139.292496, -234.771820
1715798042.105924, 2.205509, 2.545485, -9.768642, 0.124250, 0.488414, 3.728200, 17.969757, 140.092697, -235.153000
1715798042.139261, 0.752228, 2.425177, -9.492112, -0.184816, 0.686678, 3.513560, 19.409180, 139.703262, -235.582245
1715798042.172576, 0.023792, 1.947085, -10.350732, -0.289296, 0.972290, 3.298127, 21.021591, 139.262634, -235.624176
1715798042.205924, -0.748487, 2.057517, -10.821492, -0.149123, 0.631545, 3.159170, 21.277405, 139.056747, -235.552170
1715798042.239261, -0.944961, 2.307561, -10.699687, 0.004270, 0.366139, 3.063232, 22.992477, 138.535904, -235.574188
1715798042.272664, -1.727416, 2.744354, -9.843461, -0.078391, 0.517755, 2.845920, 24.123291, 137.585098, -235.621780
1715798042.305914, -1.496226, 3.259257, -10.318560, -0.173618, 0.806302, 2.765684, 24.640457, 137.022247, -235.471588
1715798042.339302, -2.346467, 4.108899, -10.564265, -0.229224, 0.705799, 2.520371, 24.992828, 136.343246, -235.457352
1715798042.372578, -2.636914, 4.034978, -11.178378, -0.122565, 0.562259, 2.290437, 25.717331, 135.429993, -234.834076
1715798042.405962, -3.004573, 4.206463, -10.572346, -0.115873, 0.687273, 2.065410, 26.356735, 134.636230, -234.811722
1715798042.439339, -3.603124, 3.984251, -10.716896, -0.213896, 0.813268, 1.867629, 26.494034, 134.306229, -234.736511
1715798042.472648, -4.757428, 3.532345, -11.020211, -0.350503, 1.108077, 1.647122, 26.163391, 133.544525, -234.281967
1715798042.505996, -6.149657, 2.829348, -11.637466, -0.346831, 0.876999, 1.017498, 25.958115, 132.892426, -233.871399
1715798042.539303, -6.731148, 2.013374, -11.957391, -0.153355, 0.507314, 0.466644, 25.751266, 132.610641, -233.537033
1715798042.572632, -6.994062, 1.373075, -11.324574, -0.026289, 0.314469, -0.106590, 25.552307, 132.592178, -233.236069
1715798042.605966, -7.157017, 0.872687, -10.736498, -0.032986, 0.091656, -0.915332, 25.269867, 132.461258, -233.360519
1715798042.639340, -7.070975, 1.148918, -11.198729, -0.028918, -0.119779, -1.552743, 25.183121, 132.702316, -233.184326
1715798042.672651, -6.099977, 1.825130, -11.815984, 0.204483, -0.146723, -2.159264, 24.604095, 132.983292, -233.112228
1715798042.705932, -4.241478, 3.036596, -11.779023, 0.465693, -0.336159, -2.585342, 24.371658, 134.229034, -233.280930
1715798042.739293, -3.150620, 3.799448, -11.326070, 0.582732, -0.830821, -2.853707, 23.420700, 135.213455, -234.032883
1715798042.772662, -2.562694, 4.592827, -10.678888, 0.475233, -0.961014, -3.147769, 23.218033, 135.791458, -234.130249
1715798042.805980, -1.165527, 4.779275, -10.380959, 0.363791, -0.814000, -3.317977, 22.261337, 136.794785, -234.549225
1715798042.839327, -0.915034, 4.831499, -10.282198, 0.091556, -1.058482, -3.476668, 21.380081, 137.574753, -234.338974
1715798042.872639, -0.695665, 4.767304, -11.012280, 0.122058, -1.153319, -3.698659, 20.988739, 137.572098, -234.466324
1715798042.905105, 0.860117, 4.192397, -10.628909, 0.151833, -0.966742, -3.680414, 19.632965, 138.221481, -234.629379
1715798042.939319, 0.838120, 4.055179, -10.398018, 0.018141, -0.963720, -3.606641, 18.087524, 138.709473, -234.420212
1715798042.972526, 1.270274, 4.284125, -10.461165, -0.149787, -1.067773, -3.657889, 17.092484, 138.744400, -234.423599
1715798043.005989, 2.979883, 4.441394, -11.218780, -0.319151, -0.972557, -3.666927, 16.658539, 138.399124, -234.157501
1715798043.039228, 5.125836, 3.580379, -12.106430, -0.077479, -0.893874, -2.979959, 15.205658, 137.808212, -233.874634
1715798043.072644, 5.555595, 3.231125, -11.733533, 0.044836, -0.970995, -2.494186, 14.671967, 137.726303, -233.189301
1715798043.105945, 5.235371, 3.211672, -11.492467, -0.004017, -0.846511, -2.444065, 14.587692, 137.081161, -233.187012
1715798043.139150, 7.522432, 1.726818, -11.260828, 0.183663, -0.193090, -2.042023, 13.914841, 136.585968, -233.152359
1715798043.172426, 8.914361, 1.029058, -10.142736, 0.139537, -0.165592, -1.403069, 13.249115, 136.127396, -232.917908
1715798043.206023, 8.602965, 0.553659, -10.376620, 0.131479, -0.364512, -1.025557, 13.085419, 136.088165, -232.639496
1715798043.239241, 10.236559, -0.337433, -9.456797, 0.022544, -0.128545, -0.634406, 12.878860, 135.489899, -232.373535
1715798043.272584, 10.801590, -1.176152, -10.030508, -0.108673, 0.167964, 0.387340, 12.558044, 135.408737, -232.740036
1715798043.305916, 9.519645, -1.067515, -10.839598, -0.045886, -0.032707, 0.886644, 12.845749, 135.740738, -232.545990
1715798043.339248, 9.987412, -0.220416, -10.922348, -0.013102, -0.018959, 1.174956, 12.986679, 135.846130, -232.624542
1715798043.372657, 11.465832, 0.644639, -10.660333, -0.052142, 0.774439, 1.987520, 13.833191, 136.368103, -233.060089
1715798043.405918, 10.421511, 1.438317, -11.268310, -0.084695, 0.859269, 2.745148, 14.417191, 136.772186, -233.593063
1715798043.439252, 6.912808, 2.443283, -11.557111, 0.135047, 0.458139, 3.210917, 14.624252, 137.252625, -233.729874
1715798043.472676, 5.569661, 3.496582, -10.563966, 0.200652, 0.803286, 3.453754, 15.519806, 138.059189, -233.975006
1715798043.506013, 4.386477, 3.876961, -10.522816, 0.111190, 0.982988, 3.824639, 17.133530, 138.420776, -234.451965
1715798043.539265, 1.263241, 4.340239, -10.714651, 0.068799, 0.693080, 3.899826, 17.700928, 138.494492, -234.598389
1715798043.572630, 0.101903, 4.139425, -10.556035, 0.191917, 0.729561, 3.756122, 19.568405, 138.385895, -234.894073
1715798043.605921, -0.523432, 3.956718, -10.148273, 0.124591, 1.001686, 3.656681, 21.061661, 138.296219, -234.850189
1715798043.639294, -1.409586, 4.223222, -9.966014, 0.084384, 1.037930, 3.511293, 22.212357, 137.963470, -234.969345
1715798043.672537, -2.721309, 4.184915, -9.960777, -0.011010, 0.537220, 3.181187, 22.694550, 137.748535, -234.821838
1715798043.705875, -3.215712, 3.910180, -10.064775, 0.001189, 0.957346, 2.806273, 23.878021, 137.106796, -234.732773
1715798043.738773, -3.686921, 4.047996, -9.986664, -0.153282, 1.139703, 2.495121, 24.385788, 136.108566, -234.564545
1715798043.772636, -4.049044, 3.636643, -10.800244, -0.219910, 0.821805, 2.267360, 24.604599, 135.851288, -234.365204
1715798043.805973, -5.174169, 3.661782, -11.261277, -0.315905, 0.614729, 1.769828, 24.566788, 135.081436, -234.067596
1715798043.839234, -5.507711, 3.333926, -11.677270, -0.353257, 0.688609, 1.409755, 25.049667, 134.564774, -233.927139
1715798043.872753, -6.615927, 3.091064, -12.698097, -0.169599, 0.715085, 1.010928, 24.868774, 133.888412, -233.198486
1715798043.905663, -6.668001, 2.942474, -12.253674, -0.041226, 0.509456, 0.408449, 24.690125, 133.893402, -233.777924
1715798043.939241, -6.966379, 2.566584, -12.058995, -0.009898, 0.221635, -0.072674, 24.681061, 133.762589, -233.196075
1715798043.972645, -6.616227, 1.927931, -11.709442, 0.010436, 0.052794, -0.471214, 24.117722, 134.048523, -233.292664
1715798044.005890, -7.035511, 1.918653, -11.658715, 0.084014, 0.024882, -1.301154, 24.263855, 133.972000, -233.421875
1715798044.039267, -6.331017, 2.128296, -11.951406, 0.288761, -0.208261, -1.871829, 23.478806, 134.651245, -233.597733
1715798044.072639, -5.349544, 2.615366, -11.844265, 0.529769, -0.305464, -2.405073, 23.157394, 135.409882, -233.495636
1715798044.105907, -3.355474, 3.294870, -11.173440, 0.667914, -0.620062, -2.831206, 22.769135, 135.848633, -233.533386
1715798044.139292, -1.710507, 3.766827, -10.906636, 0.616873, -0.986696, -2.894195, 21.917908, 136.908340, -234.148102
1715798044.172547, -0.635810, 4.293701, -10.852168, 0.677605, -0.839253, -3.034458, 21.213638, 137.784225, -234.449997
1715798044.206004, 1.539921, 3.746477, -10.092607, 0.438662, -1.272999, -2.846743, 20.445908, 138.627274, -234.961380
1715798044.239300, 1.350180, 3.350685, -10.510396, 0.456372, -1.152523, -2.920089, 19.686707, 138.446365, -234.930145
1715798044.272624, 2.189946, 2.677765, -11.107300, 0.699236, -1.054863, -3.071908, 18.950119, 139.395050, -235.241669
1715798044.305984, 3.195511, 2.463634, -10.005668, 0.462523, -1.541574, -2.818689, 17.998276, 139.843475, -235.553314
1715798044.339295, 3.826234, 2.091934, -10.239252, 0.012486, -0.867635, -2.844508, 17.725388, 139.833725, -235.801193
1715798044.372629, 4.835988, 1.064372, -10.647015, 0.066436, -0.627723, -2.569648, 16.808746, 139.641022, -235.340469
1715798044.405912, 5.861455, 0.173879, -10.694749, 0.083309, -1.522853, -1.865549, 16.284058, 139.718765, -235.282288
1715798044.439246, 5.171775, -0.104597, -10.165631, 0.153605, -1.155732, -1.780399, 16.527893, 139.578125, -235.219788
1715798044.472629, 6.344784, -0.523283, -9.478345, -0.162159, -0.995957, -1.548603, 16.065948, 139.222336, -234.885162
1715798044.505953, 6.688502, -1.288529, -11.032481, -0.151444, -0.584534, -1.370119, 15.863647, 138.679535, -234.400558
1715798044.539238, 7.115118, -1.852813, -10.629208, 0.142928, -0.196157, -1.010041, 15.673416, 138.534470, -234.077225
1715798044.572581, 7.143998, -2.072630, -9.351153, -0.041917, -0.083843, -0.707690, 15.522629, 138.427597, -233.942108
1715798044.605942, 7.369802, -2.081010, -10.034249, -0.018687, 0.075530, -0.441252, 15.160172, 138.370651, -233.838501
1715798044.639212, 7.606379, -2.120365, -10.307786, 0.022301, -0.108569, 0.143793, 15.359680, 138.451355, -233.934036
1715798044.672657, 7.530512, -1.670704, -10.595839, -0.020120, -0.388601, 0.561329, 15.237366, 138.267792, -233.901108
1715798044.705918, 7.459435, -1.413776, -11.025598, -0.007915, -0.550106, 1.085477, 15.850601, 138.641434, -234.106445
1715798044.739240, 6.820781, -0.505775, -10.315867, -0.065642, 0.544877, 1.515146, 16.217239, 139.154495, -234.425125
1715798044.772585, 5.645976, -0.311396, -10.467150, -0.181768, 1.724380, 1.593805, 16.355530, 139.175354, -234.439377
1715798044.805968, 5.136909, -0.367660, -10.217555, -0.253898, 1.046434, 1.739186, 16.120239, 139.312149, -234.673416
1715798044.839250, 5.197662, -0.137966, -9.895235, -0.350112, 0.505894, 2.060169, 16.649841, 139.164459, -234.817657
1715798044.872662, 5.062539, 0.088286, -9.801562, -0.157324, 0.716645, 2.789690, 17.494568, 139.352386, -234.676346
1715798044.905971, 2.607435, 0.907552, -9.067141, -0.264778, 0.451114, 3.006998, 18.012604, 139.205658, -234.875977
1715798044.939250, 1.857900, 1.563114, -8.921394, -0.379574, 0.166212, 3.146157, 19.550201, 139.216309, -235.098419
1715798044.972610, 0.795025, 2.083255, -9.042451, -0.407609, 0.500307, 3.314268, 21.187424, 138.735489, -234.751572
1715798045.005997, -0.515651, 2.794183, -9.875932, -0.455034, 0.315571, 3.320258, 21.832275, 138.125885, -234.733749
1715798045.039297, -1.641525, 2.665046, -10.346094, -0.390784, 0.145635, 3.157223, 23.242523, 137.169891, -234.711517
1715798045.072589, -1.856105, 2.587533, -10.586112, -0.245967, 0.198259, 2.885941, 24.625412, 136.154068, -234.799316
1715798045.106011, -2.355146, 2.605041, -10.553491, -0.237821, 0.631942, 2.638231, 25.219788, 135.122849, -234.542801
1715798045.139354, -2.527080, 2.978686, -10.733206, -0.190402, 0.707410, 2.401608, 25.773315, 134.680038, -234.466248
1715798045.172559, -3.103035, 3.818752, -11.280880, -0.031930, 0.563366, 1.942313, 25.686920, 134.323746, -234.201996
1715798045.206008, -2.530671, 3.933673, -11.362283, 0.087207, 0.424939, 1.896026, 26.218033, 133.513062, -234.070282
1715798045.239257, -3.840150, 4.688296, -11.127351, 0.063260, 0.289127, 1.734033, 26.546951, 133.333557, -234.264465
1715798045.272668, -4.824167, 5.125686, -11.282376, 0.041190, 0.675619, 1.327681, 26.927414, 132.798874, -234.155853
1715798045.305905, -5.383362, 4.680664, -10.992229, -0.014548, 0.791206, 1.095817, 26.388290, 132.295151, -233.625931
1715798045.339236, -6.656778, 3.644723, -10.653599, -0.126167, 0.301036, 0.762621, 26.237610, 132.275467, -233.379150
1715798045.372593, -7.340622, 2.506430, -10.966940, -0.194286, -0.185525, 0.168322, 26.174042, 131.850143, -233.267731
1715798045.405962, -6.497714, 2.266262, -11.143512, -0.166478, 0.021274, -0.604249, 26.286392, 131.671249, -233.370331
1715798045.439229, -6.106561, 2.253393, -11.387721, -0.157243, 0.032081, -1.147761, 25.810226, 132.020828, -233.044617
1715798045.472588, -5.762544, 2.294992, -12.513744, 0.091878, 0.010444, -1.821176, 25.751022, 131.904480, -233.097275
1715798045.506012, -4.370765, 2.643199, -12.271780, 0.575705, -0.296627, -2.313859, 25.356491, 132.738235, -233.354675
1715798045.539262, -2.622549, 3.186383, -11.387122, 0.734181, -0.484026, -2.426195, 24.909393, 134.073074, -233.617401
1715798045.572582, -1.636138, 3.958513, -10.036194, 0.569837, -0.639660, -2.564501, 24.688980, 134.627640, -233.754715
1715798045.605087, -0.386664, 4.484639, -9.506776, 0.149144, -0.885175, -2.814933, 23.978180, 135.737518, -233.911804
1715798045.638324, 1.184382, 4.061015, -10.505458, -0.106518, -1.365079, -2.769206, 23.832703, 136.319962, -234.296494
1715798045.672596, 1.564611, 3.525761, -10.617536, -0.044742, -1.113639, -2.781907, 23.055344, 137.020706, -234.515869
1715798045.705931, 1.019032, 3.180847, -10.113856, 0.099219, -0.691805, -2.917148, 22.927094, 137.310349, -234.527405
1715798045.739265, 1.500865, 2.977639, -9.655815, -0.106008, -0.371754, -3.051707, 21.692764, 137.635330, -234.339203
1715798045.772703, 1.817199, 2.478448, -10.294768, -0.140274, -0.539540, -2.952621, 20.602585, 137.968979, -234.366669
1715798045.806006, 1.696890, 2.006191, -10.237157, -0.192170, -0.851430, -2.839772, 19.890137, 138.104935, -234.162796
1715798045.839316, 2.009932, 1.754501, -10.019884, -0.095651, 0.095824, -3.090494, 18.737183, 138.335052, -234.057465
1715798045.872677, 2.950405, 1.067964, -10.188376, -0.108809, -0.330717, -2.799384, 17.095306, 138.136673, -233.702866
1715798045.905995, 2.918532, 0.743250, -10.674997, 0.011921, -0.980327, -2.438982, 16.871262, 138.034622, -233.455109
1715798045.939312, 3.433584, 0.800860, -10.033650, 0.160053, -0.335715, -2.479585, 16.556183, 137.685776, -233.251740
1715798045.972653, 5.070021, 0.267253, -10.150068, 0.258036, -0.311217, -2.056379, 15.643143, 137.515091, -233.294312
1715798046.005973, 5.180454, -0.233884, -10.549002, 0.156743, -1.659093, -1.267754, 15.979721, 137.007858, -232.842331
1715798046.039266, 4.923077, -0.341323, -9.910199, 0.010917, -1.234012, -1.133400, 16.186935, 136.716110, -232.885681
1715798046.072673, 5.668871, -0.924611, -9.681254, -0.131771, -0.020225, -1.111914, 16.556381, 136.200119, -232.469681
1715798046.105922, 7.103297, -1.445050, -10.201244, -0.169558, 0.374032, -0.593229, 16.177979, 136.141663, -232.728729
1715798046.139265, 7.639598, -1.789366, -10.954520, -0.117691, -0.359697, 0.320170, 16.014862, 135.961105, -232.420578
1715798046.172652, 7.249194, -1.576582, -10.819697, -0.047067, -0.192710, 0.762485, 16.233398, 136.419968, -232.484802
1715798046.205987, 7.555951, -0.911892, -10.636989, -0.088687, 0.594220, 1.122115, 16.445572, 136.697739, -232.532120
1715798046.239242, 8.450933, -0.140210, -11.905617, -0.040420, 0.771066, 1.783906, 16.573059, 136.858566, -232.887970
1715798046.272678, 7.883208, 0.751330, -11.929259, 0.306843, 0.708579, 2.604244, 16.644485, 137.027328, -233.137802
1715798046.305983, 7.902212, 2.477849, -10.169820, 0.021645, 1.908814, 3.019184, 17.365829, 137.961441, -233.499313
1715798046.339318, 5.330391, 2.715174, -13.471275, 0.040590, 1.115131, 3.716138, 17.580383, 138.068161, -233.866058
1715798046.372677, 3.763386, 2.940678, -12.794314, 1.138860, -1.266505, 4.372038, 18.892212, 138.643158, -234.191803
1715798046.405990, 2.741959, 3.402609, -9.424775, 1.012828, 0.506096, 4.377836, 21.681259, 138.886444, -235.359909
1715798046.439270, -1.130811, 3.310433, -9.089587, 0.460774, 1.759774, 4.183209, 23.150757, 138.746902, -235.509979
1715798046.472606, -2.473360, 2.817826, -9.938780, -0.083451, 1.025707, 3.787716, 24.002762, 138.054703, -235.659958
1715798046.506015, -3.135506, 2.314445, -10.493337, -0.039784, 0.774615, 3.421198, 24.863785, 136.952972, -235.369186
1715798046.539263, -4.034679, 2.307861, -10.499322, 0.140387, 0.893648, 2.898569, 25.892380, 136.203644, -235.452972
1715798046.572630, -4.497957, 2.806453, -9.974244, 0.165398, 0.604452, 2.281741, 26.344696, 135.342728, -235.245514
1715798046.605939, -4.158878, 3.431190, -9.857676, 0.085962, 1.243936, 1.679371, 26.841751, 135.093018, -235.184265
1715798046.639380, -3.407847, 3.893720, -10.165631, -0.096367, 1.417613, 1.374107, 26.206863, 134.697418, -234.437653
1715798046.672553, -4.052336, 4.244471, -11.649886, -0.017387, 0.612900, 1.164375, 26.250427, 134.378021, -234.408203
1715798046.705944, -4.902876, 4.376900, -11.916540, 0.221998, 0.085703, 0.711795, 25.946350, 134.267502, -234.333801
1715798046.739276, -3.904344, 4.332009, -10.642975, 0.182719, 0.300756, 0.559898, 26.218613, 133.971176, -234.507675
1715798046.772627, -4.407127, 4.577115, -10.569951, -0.112206, 0.648833, 0.393463, 25.521484, 133.757401, -234.191467
1715798046.805949, -4.757728, 4.197335, -11.333702, -0.292808, 0.275842, 0.141233, 25.674118, 133.863068, -233.986176
1715798046.839278, -4.635324, 3.620482, -11.590181, -0.279351, 0.293943, -0.097082, 25.746155, 133.775894, -233.820419
1715798046.872609, -5.130325, 2.779668, -12.116456, -0.294526, 0.338063, -0.392277, 25.133499, 133.422852, -233.756882
1715798046.905944, -5.222652, 2.348113, -12.800300, 0.102662, -0.019475, -0.892394, 24.819443, 133.682266, -233.601608
1715798046.939275, -5.008221, 2.240075, -11.976545, 0.459788, -0.092014, -1.383066, 24.456894, 133.932861, -233.661133
1715798046.972617, -4.285022, 2.632724, -10.732607, 0.544104, 0.151608, -1.727189, 24.097458, 134.710739, -233.779007
1715798047.005994, -3.672406, 3.174711, -10.579827, 1.006377, -0.099387, -2.343239, 23.029556, 135.671478, -233.698776
1715798047.039279, -2.067842, 3.490297, -9.247005, 0.782394, -1.159889, -2.647126, 22.897324, 136.183716, -234.360245
1715798047.072734, -0.795174, 3.876362, -9.141062, 0.120659, -1.956341, -2.949819, 22.592026, 137.295273, -234.590683
1715798047.105945, 0.434847, 3.659837, -10.448745, -0.306583, -1.118797, -3.490328, 22.279984, 137.494675, -234.756805
1715798047.139341, 1.944990, 2.789993, -12.277616, -0.107881, -0.623782, -3.588017, 21.347839, 138.168991, -234.736313
1715798047.172615, 2.668487, 2.036717, -12.701838, 0.085716, -1.285152, -3.279647, 20.540359, 138.176559, -234.869232
1715798047.206116, 2.629133, 2.172888, -11.013777, 0.035704, -1.428861, -3.212010, 19.260483, 138.861832, -234.958557
1715798047.239287, 3.676596, 1.621174, -10.667814, -0.100404, -0.376727, -3.228049, 18.116333, 138.336868, -234.705673
1715798047.272701, 4.299088, 0.726191, -11.174188, -0.063979, -0.998012, -2.772508, 17.959183, 138.468704, -234.216415
1715798047.305949, 4.833893, 0.281618, -10.975918, 0.029187, -1.211053, -2.408449, 16.968292, 138.451431, -234.394943
1715798047.339362, 3.950582, 0.088585, -10.069713, 0.088535, -1.051560, -2.255673, 16.893372, 138.388077, -233.795898
1715798047.372668, 4.410718, 0.667384, -9.459640, -0.132154, -0.396025, -2.357453, 16.555252, 138.074112, -233.816391
1715798047.406012, 6.415862, -0.146046, -10.552593, 0.114501, 0.177437, -2.145452, 15.510651, 137.746002, -233.329880
1715798047.439286, 7.068880, 0.005237, -9.541941, 0.178944, -0.233711, -1.474942, 14.950470, 137.483215, -233.151443
1715798047.472623, 7.558944, -0.485275, -8.757541, -0.055356, -0.297891, -1.073355, 14.121170, 137.270493, -232.965805
1715798047.506031, 8.482357, -1.382951, -9.410859, -0.147312, -0.185958, -0.496376, 14.091232, 136.667847, -232.707855
1715798047.539291, 9.446472, -1.686865, -9.944616, -0.066816, -0.044598, 0.259193, 14.191101, 136.611542, -232.816605
1715798047.572602, 10.363003, -1.083825, -9.960029, -0.190196, 0.033007, 0.682758, 14.418091, 136.898010, -232.825684
1715798047.605926, 12.053459, -0.508469, -11.321731, -0.186309, 0.409195, 1.065296, 14.297653, 137.071152, -232.905792
1715798047.639273, 14.858266, -0.014515, -13.226617, 0.397351, -0.395862, 2.822223, 15.283173, 137.508087, -233.158249
1715798047.672623, 12.837410, 1.829619, -11.486631, 0.471002, 1.053241, 3.807585, 16.689240, 138.230835, -234.194031
1715798047.706037, 7.972093, 3.099893, -11.197681, 0.386813, 2.038315, 4.234002, 16.932877, 138.690506, -234.168747
1715798047.739273, 2.960131, 3.668515, -10.441113, 0.079280, 1.154506, 4.399587, 18.008286, 139.199234, -234.897797
1715798047.772620, 1.254113, 3.447650, -9.982923, 0.040225, 0.763602, 4.448606, 19.924301, 138.998581, -235.372177
1715798047.806038, -1.062128, 3.061286, -9.636512, 0.112294, 1.110925, 4.210035, 21.719864, 138.803131, -235.341568
1715798047.839289, -3.320608, 3.099743, -9.398738, -0.024580, 0.945700, 3.818498, 22.486908, 138.462585, -235.509827
1715798047.872729, -3.892673, 2.786103, -9.680506, -0.125352, 0.546190, 3.146654, 23.722214, 137.529419, -235.396927
1715798047.905934, -3.413982, 3.039888, -9.874286, -0.069124, 0.488444, 2.747830, 24.838043, 136.772659, -235.288895
1715798047.939295, -4.030788, 3.233070, -10.303297, -0.012369, 0.693472, 2.192549, 25.010635, 136.664154, -235.481171
1715798047.972708, -4.727950, 2.978088, -10.219650, -0.016021, 0.805504, 1.595668, 25.356155, 135.897552, -235.037766
1715798048.005963, -4.398597, 2.687641, -10.800842, 0.073596, 0.524066, 1.267692, 25.691025, 135.288071, -235.057327
1715798048.039262, -3.357269, 2.464980, -10.427945, 0.067990, 1.032237, 1.057574, 25.308075, 135.206070, -234.974518
1715798048.072626, -4.933552, 2.974496, -11.661408, -0.065479, 1.161732, 0.665543, 24.908798, 134.887802, -234.665802
1715798048.105931, -5.357325, 3.164087, -13.181277, 0.043958, 0.186446, 0.186536, 24.624313, 134.913361, -234.200455
1715798048.139397, -3.534590, 3.410391, -12.350489, 0.064597, 0.351692, -0.060405, 24.413712, 134.687271, -234.304840
1715798048.172597, -2.628833, 3.835212, -12.146384, -0.070833, 0.712165, -0.143731, 24.353836, 134.490372, -234.034637
1715798048.206066, -2.538303, 3.771167, -12.355278, -0.169333, 0.159271, -0.136424, 23.441422, 134.753525, -233.470306
1715798048.239312, -2.853140, 3.306841, -12.720693, -0.111136, -0.362453, -0.288345, 23.821762, 134.790833, -233.914185
1715798048.272737, -2.198476, 2.973898, -12.288689, -0.115322, -0.630992, -0.312449, 23.701920, 134.627289, -233.911835
1715798048.305967, -3.761440, 2.648137, -12.127080, -0.223585, -0.283627, -0.643977, 23.685318, 134.599762, -233.839539
1715798048.339301, -5.017349, 2.426823, -12.500725, -0.093877, -0.258804, -1.397864, 23.752335, 134.967209, -233.487854
1715798048.372632, -3.162890, 2.054075, -12.467057, 0.113277, -0.536632, -1.735699, 23.748322, 135.461609, -233.896545
1715798048.406020, -2.536806, 1.979107, -11.702558, 0.409711, -1.064039, -2.043201, 23.493546, 135.706558, -233.615463
1715798048.439347, -2.634669, 2.426673, -10.361506, 0.239502, -1.223595, -2.497960, 23.397903, 136.347900, -234.029114
1715798048.472632, -1.806425, 2.471714, -10.403255, 0.218240, -0.767847, -3.128534, 22.766998, 137.291748, -234.655884
1715798048.506054, -0.155324, 2.468272, -10.097097, 0.234900, -0.525428, -3.536247, 22.087418, 137.464523, -234.930450
1715798048.539363, 1.079336, 2.150592, -10.119842, 0.244237, -1.090914, -3.467945, 21.015564, 138.261276, -234.802383
1715798048.572683, 1.262642, 2.402581, -9.176227, 0.203655, -1.765148, -3.487493, 20.105606, 138.526810, -234.709686
1715798048.606080, 3.154660, 1.785775, -8.430283, -0.007009, -0.551641, -3.584430, 19.197983, 138.653870, -234.919357
1715798048.639302, 4.262876, 0.508917, -9.834932, 0.245168, -1.136855, -2.896458, 18.043335, 138.889252, -234.666702
1715798048.672715, 3.661483, 1.377115, -8.847473, 0.048486, -1.432456, -2.723389, 17.139389, 138.899948, -234.701309
1715798048.705940, 5.074361, 1.347487, -8.521862, -0.105273, -0.410224, -2.825709, 16.319656, 138.696182, -234.684921
1715798048.739355, 5.759402, 0.929698, -9.210344, -0.397188, -0.738209, -2.254454, 15.900360, 138.333969, -234.140335
1715798048.772577, 6.284630, 0.361824, -10.822240, 0.007001, -0.301094, -2.082324, 14.981476, 137.480301, -233.685837
1715798048.806040, 7.333889, 0.203208, -10.448296, 0.054764, -0.597903, -1.644104, 14.554291, 137.493134, -233.663757
1715798048.839366, 8.407688, -0.223110, -10.971279, -0.058996, -0.143315, -1.182311, 14.486221, 137.120392, -233.401443
1715798048.872636, 10.455030, -1.007061, -11.758673, 0.203239, 0.774902, -0.642312, 13.708908, 136.776520, -233.188690
1715798048.905977, 10.899154, -1.366491, -10.844686, 0.218185, 0.430935, 0.258370, 13.224808, 136.844986, -233.257797
1715798048.939274, 10.677242, -0.985513, -10.173561, -0.059323, -0.443135, 1.107818, 14.019379, 137.222672, -233.750198
1715798048.972644, 11.848754, -0.664541, -10.274567, -0.274751, 0.455966, 1.582007, 14.337296, 137.618652, -233.346405
1715798049.006020, 12.854918, 0.398335, -13.639767, -0.014129, 0.534229, 2.544083, 14.788635, 137.961090, -233.673630
1715798049.039332, 10.835558, 1.219397, -12.773365, 0.469593, -0.618100, 4.095947, 17.119736, 138.883072, -234.587173
1715798049.072640, 6.737134, 2.424578, -10.983550, 0.560949, 1.184209, 4.392086, 18.050934, 138.931351, -234.745148
1715798049.106000, 2.450016, 2.863764, -10.453533, 0.345861, 2.217330, 4.070634, 19.184036, 139.341949, -235.281494
1715798049.139292, 0.744746, 2.589479, -10.279056, -0.034153, 1.144412, 3.972061, 20.506821, 139.055084, -235.322311
1715798049.172609, 0.359878, 2.381034, -10.137798, 0.059423, 0.518585, 4.164256, 21.082764, 139.123901, -235.298950
1715798049.205095, -1.458218, 2.950554, -8.759336, 0.086838, 1.226775, 3.668053, 23.241074, 138.285431, -235.640427
1715798049.239388, -1.059584, 3.237110, -8.908974, -0.259395, 1.442997, 3.415105, 23.530884, 137.646133, -235.154068
1715798049.272644, -1.700033, 3.700987, -9.778967, -0.381160, 0.580007, 3.291890, 24.904999, 136.266693, -234.827789
1715798049.306030, -2.038812, 3.919308, -10.221296, -0.254156, 0.507830, 2.967018, 25.190231, 135.670670, -234.458237
1715798049.339363, -3.410989, 4.286668, -10.069414, -0.209802, 0.632840, 2.552263, 26.108063, 134.709503, -234.504440
1715798049.372696, -3.809025, 3.880702, -10.597335, -0.258325, 0.587734, 2.063217, 26.947678, 133.912781, -234.463776
1715798049.406054, -4.498555, 3.892673, -10.978312, -0.162828, 0.589228, 1.755079, 26.549179, 133.346405, -234.396072
1715798049.439313, -6.080075, 3.985298, -11.236288, -0.240419, 0.625527, 1.203078, 26.585297, 132.687485, -234.002930
1715798049.472650, -5.868637, 3.942951, -12.321310, -0.100991, 0.530484, 0.532191, 26.537369, 132.117188, -233.604156
1715798049.506094, -5.392790, 4.288614, -12.464962, 0.001339, 0.575329, 0.223441, 26.554276, 132.066620, -233.600113
1715798049.539280, -5.478083, 4.271405, -12.342708, 0.008278, 0.507625, -0.219972, 25.957260, 132.285980, -233.340408
1715798049.572673, -4.754136, 4.139126, -12.277616, 0.114972, -0.169842, -0.477277, 25.695190, 132.247192, -233.485580
1715798049.606031, -4.760421, 4.047548, -11.766304, 0.177376, -0.129201, -0.881243, 25.404648, 132.632599, -233.562698
1715798049.639391, -4.171447, 4.063559, -11.334300, 0.178045, -0.178582, -1.253579, 25.756378, 133.041351, -233.613373
1715798049.672616, -3.897760, 3.764433, -11.423035, 0.265075, -0.001593, -1.908529, 24.853378, 133.296631, -233.690125
1715798049.706032, -2.977040, 3.293673, -11.277438, 0.314467, -0.474694, -2.106002, 24.398041, 134.377808, -233.748245
1715798049.739322, -3.157054, 3.341408, -11.171345, 0.381067, -0.559426, -2.428476, 24.484344, 134.673508, -234.018158
1715798049.772800, -2.797176, 3.370587, -10.291476, 0.461210, -0.443752, -3.012267, 24.047943, 135.492111, -234.290009
1715798049.805991, -1.593192, 3.419070, -10.301053, 0.332642, -0.793681, -3.398029, 22.729660, 136.573364, -234.382431
1715798049.839288, -0.849493, 3.586215, -10.811167, 0.211832, -1.395867, -3.607438, 21.739792, 137.657501, -234.289337
1715798049.872694, 0.610671, 3.339462, -11.139023, 0.110864, -1.368129, -3.825582, 21.286530, 137.852676, -234.828491
1715798049.905986, 1.878102, 2.680608, -11.228507, 0.350216, -0.949018, -3.834837, 20.136520, 138.243149, -234.419937
1715798049.939319, 2.987814, 2.487725, -10.372729, 0.253147, -1.121483, -3.534910, 19.126419, 138.891647, -234.911179
1715798049.971954, 3.674202, 2.658611, -9.381679, -0.084681, -0.581744, -3.403674, 17.993088, 138.764557, -234.603363
1715798050.006032, 4.908712, 1.920748, -11.479000, 0.138903, -1.240754, -2.973736, 16.640747, 138.442642, -234.401489
1715798050.039328, 6.600515, 1.727865, -10.297761, 0.109143, -1.168990, -2.347053, 16.503677, 138.429550, -234.167297
1715798050.072691, 5.587767, 0.972944, -8.192808, -0.389527, -0.106810, -1.967190, 16.236115, 138.147964, -233.899704
1715798050.106034, 5.199607, 0.931195, -10.594193, -0.264863, -0.329146, -2.079561, 15.287170, 137.506073, -233.175003
1715798050.139398, 7.486220, 0.344466, -11.540800, 0.391330, -0.441372, -1.943562, 14.476730, 136.615585, -233.065216
1715798050.172663, 9.318382, 0.410755, -9.252692, 0.138012, -0.457914, -1.419096, 13.830399, 136.663254, -232.901276
1715798050.206113, 11.295395, -0.608576, -9.116671, -0.165359, 0.614994, -0.636723, 13.617172, 136.294708, -232.632599
1715798050.239323, 12.344953, -1.089811, -10.437821, -0.044719, 0.525544, 0.285060, 12.620148, 135.914307, -232.814499
1715798050.272659, 11.816433, -0.562637, -10.718990, -0.041816, -0.146991, 0.903767, 13.179443, 136.287094, -232.967163
1715798050.306042, 13.579613, 0.027533, -10.396970, 0.027320, -0.896324, 1.522328, 13.689392, 136.725021, -233.031723
1715798050.339406, 13.812748, 0.527921, -10.196157, -0.116883, 0.785545, 2.635630, 15.021439, 137.425797, -233.349274
1715798050.372744, 11.580005, 1.308581, -10.987440, -0.141511, 1.429362, 3.399559, 15.651611, 137.708282, -233.874741
1715798050.406034, 6.580014, 1.949179, -10.956016, -0.103060, 0.532749, 3.948209, 16.109985, 138.101318, -234.103790
1715798050.439495, 3.787926, 2.522291, -10.436774, 0.091607, 0.242810, 3.973938, 17.760147, 138.449478, -234.244339
1715798050.472665, 2.247407, 2.699163, -9.816975, 0.090365, 0.928016, 3.940939, 19.710617, 138.462448, -234.840744
1715798050.506080, -0.345364, 3.059640, -9.783755, 0.029731, 1.239717, 3.841074, 20.907593, 138.401093, -234.658264
1715798050.539396, -1.497872, 2.694524, -9.626636, 0.018695, 0.816875, 3.516584, 21.464783, 138.098328, -234.849503
1715798050.572662, -1.169119, 2.798822, -9.536704, 0.002666, 1.573896, 3.169551, 22.340256, 137.198990, -234.753845
1715798050.606023, -0.947505, 2.987066, -9.899575, -0.151216, 1.683602, 2.933658, 22.709900, 136.988510, -234.275558
1715798050.639327, -1.526154, 3.532046, -11.138125, -0.183002, 0.340552, 2.921957, 23.063339, 136.684418, -234.299377
1715798050.672648, -2.142960, 4.468029, -11.323526, 0.061973, 0.278867, 2.557084, 24.164551, 135.559769, -234.358398
1715798050.706018, -1.520168, 5.076605, -10.729465, 0.030505, 0.870907, 2.328420, 24.904572, 135.002167, -234.260437
1715798050.739276, -2.238279, 5.388600, -10.452636, -0.302852, 0.893914, 2.242387, 24.855469, 134.785202, -234.056458
1715798050.772653, -2.832939, 4.842871, -11.491869, -0.298087, 0.844231, 2.115898, 25.249420, 134.059387, -233.803329
1715798050.806024, -4.811896, 4.679467, -11.235091, -0.366182, 0.944009, 1.573136, 25.028366, 133.142410, -233.266617
1715798050.839335, -5.262605, 3.297265, -12.309339, -0.557532, 0.303648, 1.075394, 24.788712, 132.492233, -233.063965
1715798050.872712, -6.088305, 2.570475, -12.861502, -0.373552, 0.022824, 0.491528, 25.098785, 131.986984, -232.989395
1715798050.906097, -6.700323, 2.305467, -13.263428, -0.202588, 0.371995, -0.215307, 24.786697, 131.610550, -232.672974
1715798050.939388, -5.965004, 2.106748, -13.948020, 0.004478, -0.012074, -0.693186, 24.547791, 131.869308, -232.901154
1715798050.972742, -5.325303, 2.448520, -13.859136, 0.285577, -0.521441, -1.385496, 24.767609, 131.948395, -232.762390
1715798051.006051, -4.022259, 2.924068, -13.724911, 0.548893, -0.615296, -1.837964, 24.704727, 132.633698, -232.778442
1715798051.039302, -1.783531, 3.593697, -12.920309, 0.765115, -0.761181, -2.071602, 24.418488, 133.598633, -233.240005
1715798051.072673, -0.904110, 3.999664, -11.798027, 0.844287, -0.803494, -2.398621, 24.188431, 135.016815, -234.091324
1715798051.106081, -0.010325, 3.937265, -10.926837, 0.795834, -0.965904, -2.634769, 24.153717, 135.504639, -234.122421
1715798051.139414, 1.235707, 3.214665, -10.190620, 0.743027, -1.150017, -2.651683, 23.713577, 136.778915, -234.596405
1715798051.172640, 2.016965, 2.175431, -9.635465, 0.781896, -1.370225, -2.583401, 23.191940, 137.934708, -235.386780
1715798051.205986, 2.203863, 2.049586, -8.964490, 0.703222, -1.341007, -2.711252, 22.862534, 138.438217, -235.772461
1715798051.239372, 2.896685, 1.280898, -8.516475, 0.518057, -1.414806, -2.760425, 22.184799, 139.037354, -236.225571
1715798051.272764, 4.845715, -0.427814, -7.777265, 0.402122, -0.943352, -2.633331, 21.559616, 140.245911, -236.790543
1715798051.306080, 5.048324, -1.775151, -7.787291, 0.357226, -0.555217, -2.108902, 21.130783, 140.400909, -236.869354
1715798051.339368, 3.416077, -1.916708, -8.273912, 0.230157, -1.082635, -2.004848, 19.983688, 141.140915, -237.125000
1715798051.372655, 3.634548, -1.918204, -8.821586, 0.023814, -1.091518, -2.347880, 19.437958, 141.217773, -236.800095
1715798051.406076, 4.916643, -2.808698, -9.115324, -0.165647, -0.932093, -1.747733, 18.493500, 141.192429, -236.911133
1715798051.439394, 3.344700, -3.096750, -9.216180, -0.254794, -0.819086, -1.435850, 18.266693, 141.168259, -237.034622
1715798051.472653, 3.467702, -2.532317, -9.980828, -0.208882, -0.170175, -1.532825, 17.883286, 141.285446, -236.809769
1715798051.506040, 4.017321, -2.372953, -10.315567, -0.235458, -0.638053, -1.009798, 17.441040, 140.612396, -236.447617
1715798051.538823, 2.946813, -2.650232, -11.156232, -0.114132, -1.042386, -0.763066, 17.186447, 140.630112, -236.324081
1715798051.572770, 1.824831, -2.355894, -11.081113, 0.002090, -0.864856, -0.808871, 17.270584, 140.332291, -236.252197
1715798051.606007, 2.473210, -2.419790, -10.295815, 0.045500, 0.560452, -0.822942, 16.706024, 140.707687, -236.038788
1715798051.638642, 3.081637, -2.255338, -10.457873, 0.103166, 0.558669, -0.531438, 16.240921, 140.542130, -235.809006
1715798051.672744, 3.026271, -2.038214, -9.921123, 0.005617, -0.054328, -0.278241, 15.908020, 140.656891, -236.113358
1715798051.706067, 3.501969, -2.067842, -9.742755, -0.030599, 0.031139, -0.053905, 15.898117, 140.492722, -235.999619
1715798051.739346, 3.567061, -2.164059, -9.481338, -0.079719, 0.259859, 0.205079, 15.637939, 140.541733, -235.745193
1715798051.772702, 3.012205, -2.011578, -9.574712, -0.073359, 0.257863, 0.365234, 15.668396, 140.546600, -236.006638
1715798051.806088, 2.258929, -1.917905, -9.249848, -0.068282, 0.253406, 0.214680, 15.895584, 140.646332, -235.784912
1715798051.839422, 2.674024, -2.192490, -9.387814, -0.079238, 0.637109, 0.383986, 15.762970, 140.427139, -235.426804
1715798051.872785, 2.542343, -2.800318, -9.110536, -0.009754, 0.693652, 0.646335, 15.682068, 140.586227, -235.600433
1715798051.906066, 0.525827, -2.900725, -8.971074, -0.139381, 0.509120, 0.697055, 15.648315, 140.636124, -235.796997
1715798051.939382, -0.221464, -2.989610, -9.091083, -0.282170, 0.728166, 0.481400, 15.645767, 140.720398, -235.807037
1715798051.972785, 0.677559, -2.942623, -9.537302, -0.260884, 0.929715, 0.521679, 15.473709, 140.790054, -235.896698
1715798052.005583, 0.074968, -2.562245, -10.004471, -0.047405, 1.081123, 0.610980, 15.236633, 140.753265, -235.949860
1715798052.039369, 0.156820, -2.415301, -9.858874, 0.042478, 0.865437, 0.292939, 14.894745, 140.773834, -235.754730
1715798052.072685, 1.202787, -2.336591, -10.046220, 0.159403, 0.481739, 0.341277, 14.760468, 141.140121, -236.322327
1715798052.106080, 1.798345, -1.700182, -9.196129, 0.201971, -1.239597, 0.706976, 14.941360, 141.117538, -236.584656
1715798052.139320, -0.205153, -1.789666, -8.567202, -0.367060, -0.559151, 0.635132, 16.317734, 141.135818, -236.598114
1715798052.172688, 0.147094, -1.915212, -9.285013, -0.358793, 0.577537, 0.382750, 16.702332, 141.230591, -236.253067
1715798052.206063, 0.942268, -1.731457, -9.524583, -0.230237, 1.358087, 0.510211, 16.398880, 140.892410, -236.321426
1715798052.239338, 0.338480, -2.418443, -10.177751, -0.214271, 0.659350, 0.602661, 15.926788, 140.849518, -236.374802
1715798052.272704, 0.059556, -2.679710, -10.417022, 0.108413, -0.973630, 0.472422, 16.470947, 140.946869, -236.594299
1715798052.306068, -2.483535, -3.936068, -11.932252, 0.463904, -0.296979, -0.014838, 17.382675, 140.936523, -236.669220
1715798052.339353, -1.354819, -2.534113, -11.589582, 0.858523, 0.447270, -0.698050, 16.837219, 141.101517, -236.813629
1715798052.372711, 1.956063, -2.807351, -9.254936, 0.739702, -0.318485, 0.095368, 16.349564, 141.509232, -237.749634
1715798052.406018, -0.555604, -3.242198, -9.422680, 0.738108, -0.993459, -0.225519, 16.508804, 142.344086, -238.161850
1715798052.439359, -0.024690, -2.117522, -9.059958, 0.203895, -0.944803, -0.214869, 16.911896, 142.420715, -238.303513
1715798052.472691, 0.365864, -3.113061, -9.087641, -0.490484, -0.547869, -0.190646, 17.152237, 142.433472, -238.733780
1715798052.506048, -0.503979, -2.344821, -10.549451, -0.251615, -0.571199, -0.240616, 17.223465, 142.210800, -237.966141
1715798052.539297, -0.261417, -2.708590, -9.532664, -0.211797, -0.280106, -0.314985, 17.317429, 142.096848, -237.696487
1715798052.572719, -0.205004, -2.641253, -10.057443, -0.008651, 0.232064, -0.126243, 17.746185, 142.002655, -237.784134
1715798052.606028, 0.070928, -2.916736, -10.082731, 0.228636, 0.218711, -0.061769, 17.112747, 142.064850, -237.970993
1715798052.639450, 0.147692, -3.008314, -9.487623, 0.062669, -0.028422, -0.090999, 16.764069, 142.236298, -238.067123
1715798052.672675, -0.017807, -2.841020, -9.145102, 0.107657, -0.040061, -0.122560, 17.068680, 142.313461, -237.833420
1715798052.706024, 0.291344, -3.016096, -8.663868, -0.228690, -0.112938, -0.206920, 17.222855, 142.122620, -237.839218
1715798052.739359, 0.473603, -2.918681, -9.472659, -0.237983, 0.156314, -0.085863, 16.574829, 142.123672, -237.785339
1715798052.772763, 0.484078, -2.896535, -10.032154, -0.062981, 0.197621, -0.004884, 16.877625, 142.255188, -237.703873
1715798052.806090, 0.110732, -2.779219, -9.821464, -0.055316, 0.203156, 0.086537, 16.711304, 142.215805, -237.767899
1715798052.839342, 0.624587, -2.949058, -10.275315, 0.157662, -0.222339, 0.154329, 16.767517, 142.295212, -237.839523
1715798052.872644, 0.301071, -2.884265, -9.632921, -0.179736, -0.240300, 0.076952, 16.980392, 142.067093, -237.758484
1715798052.906056, -0.097863, -2.430115, -10.439168, 0.250026, 0.199729, 0.103199, 16.865143, 142.055374, -237.774338