SamplingTime, AccelerationX, AccelerationY, AccelerationZ, GyroX, GyroY, GyroZ, MagneticFieldX, MagneticFieldY, MagneticFieldZ
1715797956.987005, -1.753603, -2.331354, -8.439561, 0.456124, 0.555310, -0.090450, 13.955444, 140.436523, -236.974380
1715797957.020729, -1.476923, -2.855684, -9.540295, 0.120688, 0.150036, 0.061824, 13.450424, 140.883774, -236.941116
1715797957.053987, -1.562366, -2.625242, -9.457845, -0.217074, -0.274828, 0.174313, 13.650925, 140.853043, -237.269821
1715797957.087299, -1.884087, -2.200122, -9.274838, -0.075786, 0.003100, 0.020594, 13.918060, 140.701401, -237.127838
1715797957.120649, -1.536329, -2.598008, -9.870994, 0.111955, 0.188970, -0.099001, 13.879562, 140.823792, -237.058517
1715797957.154080, -1.318158, -2.875137, -9.761609, 0.077387, -0.016642, -0.006361, 13.603546, 140.989899, -237.277237
1715797957.187337, -1.361702, -2.833089, -9.102007, 0.012807, -0.014199, 0.022076, 13.386383, 140.924667, -237.279938
1715797957.220824, -1.328632, -2.782661, -9.138219, -0.027322, 0.070300, 0.051008, 13.520798, 140.945190, -237.457153
1715797957.253987, -1.395969, -2.701857, -9.433603, -0.090502, 0.050291, 0.067360, 13.689865, 140.610260, -237.116959
1715797957.287317, -1.241693, -2.826954, -9.568726, -0.030449, 0.152019, 0.120768, 13.502533, 140.789612, -237.197495
1715797957.320662, -0.932990, -3.117400, -9.329905, 0.045998, 0.319225, 0.239566, 13.263428, 141.000656, -237.407532
1715797957.354074, -1.134103, -3.002778, -9.372701, -0.011885, 0.319939, 0.369692, 13.525070, 141.245865, -237.254059
1715797957.387465, -1.386243, -2.773533, -9.501689, -0.161384, 0.157391, 0.359754, 13.813309, 140.851486, -237.530869
1715797957.420646, -1.263091, -2.827702, -9.414151, -0.193526, 0.197888, 0.460018, 13.658417, 140.563431, -237.400253
1715797957.453974, -1.537377, -3.279458, -9.158420, -0.221700, 0.511346, 0.791197, 14.128937, 140.699966, -237.339554
1715797957.487337, -1.300351, -2.775179, -9.501090, -0.146709, 0.432999, 1.106718, 13.763062, 140.787994, -237.362762
1715797957.520699, -1.091307, -2.526631, -9.599103, -0.028757, 0.287028, 1.221410, 14.733963, 140.724457, -237.197159
1715797957.554154, -0.537498, -2.535460, -9.396194, -0.134698, 0.454036, 1.442032, 14.841873, 140.785553, -237.286942
1715797957.587398, -0.884059, -2.095375, -9.874137, -0.250769, 0.443792, 1.384749, 15.592636, 140.606094, -237.051697
1715797957.620693, -0.990900, -1.452383, -10.201544, -0.202912, 0.183297, 1.001744, 16.297623, 140.794815, -237.003479
1715797957.654112, -0.766593, -1.469441, -9.963171, -0.234728, 0.034291, 0.654949, 16.526413, 140.618210, -237.095184
1715797957.687345, -0.885256, -1.996764, -10.323049, -0.381917, 0.078746, 0.622529, 16.807388, 140.688568, -236.987106
1715797957.720776, -0.665438, -2.587234, -10.036643, -0.453925, 0.401299, 0.572556, 16.936768, 140.204697, -236.797729
1715797957.754033, -1.876306, -1.620426, -11.395203, -0.376308, 0.362414, 0.874282, 17.228836, 140.193588, -236.727737
1715797957.787343, -0.886752, -1.044321, -11.079467, 0.897181, -0.789244, 0.799593, 17.803116, 140.079468, -236.692719
1715797957.820718, -1.137994, -0.911742, -8.606407, 1.028852, -0.321682, 0.440722, 18.452164, 140.830032, -237.390610
1715797957.854107, -1.350479, -1.563114, -7.959224, 0.077523, 0.391851, 0.156144, 18.700806, 140.976913, -237.338181
1715797957.887354, -1.023521, -1.844283, -8.139687, -0.655868, 0.477008, 0.279485, 18.519424, 141.047714, -237.207550
1715797957.920785, -1.200542, -1.136797, -7.585280, -1.252553, 1.845485, -0.140761, 18.380356, 140.263153, -236.955170
1715797957.954048, -0.270844, -1.359308, -10.956316, -0.738951, 2.310635, -0.121364, 16.827026, 139.722595, -235.990677
1715797957.987338, 1.529296, -1.129764, -10.974721, 0.135053, 1.353492, 0.441148, 16.107727, 139.647034, -235.767212
1715797958.020660, -1.007959, -1.205929, -12.209381, -0.116505, 1.100038, 0.146148, 15.571274, 139.827377, -236.191010
1715797958.054072, 0.305111, -1.132308, -10.704625, -0.675259, 0.598295, 0.168317, 15.147232, 139.455902, -236.037552
1715797958.087408, 2.742408, -1.620725, -11.291504, -2.048078, 0.211053, 0.858189, 15.151047, 138.489151, -234.975693
1715797958.120696, -1.423353, 0.366612, -17.626562, -1.129783, -1.372963, 0.707570, 15.398590, 137.813095, -234.635254
1715797958.154055, 0.505326, -1.061529, -17.939154, -0.337078, -0.493961, 0.745934, 16.711960, 137.294128, -234.107208
1715797958.187363, 0.588375, -0.551415, -20.725706, 0.303813, 0.374522, 0.627904, 16.943817, 136.910294, -233.738739
1715797958.220768, 1.541118, 0.100856, -20.107703, 0.535637, -1.079313, 1.040162, 17.164001, 137.336121, -233.626038
1715797958.254067, 1.309030, 0.649278, -18.497752, 0.817492, -0.964649, 0.978175, 18.426651, 137.457794, -233.728088
1715797958.287399, 0.866402, 0.693271, -15.163377, 1.271483, -1.252398, 0.892404, 20.031052, 138.301804, -234.184708
1715797958.320709, 0.708235, 0.657807, -10.885687, 1.490676, -0.999311, 0.608561, 20.787201, 138.790390, -234.638702
1715797958.353867, 0.239719, 0.087538, -8.240393, 1.415543, -1.028461, 0.427471, 21.996353, 139.402313, -235.415970
1715797958.387360, -0.178069, -0.406565, -5.225495, 1.492845, -1.161661, 0.201545, 23.060135, 140.143112, -236.529221
1715797958.420693, 0.057162, -0.864008, -3.728520, 1.096057, -1.094218, 0.113250, 24.210251, 140.629089, -237.983124
1715797958.454024, -0.014814, -1.341501, -3.170073, 0.950688, -0.696975, 0.169137, 24.302536, 140.879730, -238.151611
1715797958.487408, -0.669479, -1.583914, -2.152537, 0.561264, -0.467202, 0.187161, 24.789124, 141.307587, -238.705048
1715797958.520690, -1.339406, -1.997063, -2.655319, 0.281934, -0.309582, 0.168032, 25.258377, 141.436386, -239.155075
1715797958.554041, -1.185130, -2.246060, -2.924218, 0.079728, -0.239826, 0.235564, 25.508667, 141.269760, -239.166473
1715797958.587353, -1.847875, -2.217929, -3.324349, -0.137306, -0.016258, 0.219725, 25.762299, 141.566925, -239.503403
1715797958.620671, -1.829918, -2.530970, -4.600309, -0.079050, 0.055151, 0.260129, 25.682098, 141.331268, -239.710434
1715797958.653997, -2.968062, -2.554164, -4.985775, -0.202687, 0.124584, 0.062619, 25.854584, 141.166718, -239.202942
1715797958.687366, -2.579752, -2.712780, -4.844517, -0.161319, 0.462389, -0.014631, 25.942963, 141.154892, -239.218491
1715797958.720779, -1.593640, -3.233220, -4.039168, -0.081437, 0.888002, 0.050031, 25.781723, 141.001511, -239.079300
1715797958.754034, -1.579575, -3.238457, -2.858078, -0.328260, 0.856927, 0.201440, 25.299057, 141.129669, -238.681122
1715797958.787460, -1.728464, -2.809296, -3.242946, -0.667596, 0.572821, 0.226957, 25.338074, 140.760818, -238.076828
1715797958.820690, -0.703895, -3.610007, -5.130475, -0.148876, 0.994051, 0.418129, 24.794418, 140.401321, -237.460464
1715797958.854019, -1.206827, -2.572869, -3.937115, 0.042329, 1.373888, 0.342980, 24.117538, 140.383545, -237.213806
1715797958.887362, -0.995240, -2.311302, -4.854394, -0.102043, 0.699177, 0.203571, 23.925690, 140.396744, -236.723770
1715797958.920694, -0.557101, -1.664569, -5.067178, -0.269384, 0.499632, -0.133493, 23.507584, 140.361145, -237.103577
1715797958.954017, 0.483180, -1.370082, -5.075558, -0.974586, 1.330873, -0.369800, 22.725388, 140.194305, -236.213837
1715797958.987360, 0.733224, -0.809390, -6.299743, -0.937434, 1.796712, -0.740087, 22.058945, 140.087082, -235.799133
1715797959.020811, 1.396119, 0.275184, -6.875698, -1.765926, 0.497139, -0.568212, 20.608826, 139.390030, -235.233734
1715797959.054080, 1.191115, 1.069759, -9.687838, -2.191054, 0.223352, -0.492427, 19.664230, 138.069611, -234.228699
1715797959.087459, 0.660650, 1.235558, -11.849802, -1.731244, 0.518333, -0.661913, 18.899261, 136.769089, -233.468109
1715797959.120696, 1.417218, 1.760337, -12.086080, -1.495606, 0.020271, -0.496812, 18.879776, 136.392578, -233.179062
1715797959.154073, 0.560243, 2.416647, -12.301558, -1.316112, 0.291341, -0.595625, 17.964523, 135.508881, -232.948578
1715797959.187462, 0.850989, 2.533514, -13.253702, -1.240975, -0.092122, -0.464354, 17.260986, 133.958038, -232.901398
1715797959.220792, 0.209792, 3.606715, -14.867693, -0.905312, -0.147363, -0.493134, 17.304108, 133.462143, -233.067169
1715797959.254079, 0.537349, 3.214066, -14.099454, -0.763782, -0.058781, -0.738491, 16.932083, 132.445679, -232.851044
1715797959.287381, 1.794454, 4.310012, -13.727305, -0.872250, -0.317260, -0.383627, 17.171371, 131.567566, -233.040955
1715797959.320690, 0.475099, 4.896442, -14.598345, -0.796335, -0.461794, -0.410623, 17.297577, 130.277847, -232.781494
1715797959.354074, 1.242441, 4.331410, -15.292514, -0.564291, -0.300507, -0.589714, 17.757278, 129.953934, -233.127563
1715797959.387241, 2.155230, 3.549853, -16.392351, 0.261066, 1.199862, -0.856751, 17.057678, 129.173004, -233.223511
1715797959.420793, 1.526902, 3.622726, -15.312865, 0.607600, 0.230038, -0.649937, 16.238937, 129.539886, -233.094254
1715797959.454102, 2.071134, 3.204639, -12.447155, 0.073895, -0.541603, -0.281150, 16.184799, 129.606491, -233.250763
1715797959.487356, 1.184681, 2.773982, -13.479056, -0.280060, -0.086782, -0.023731, 16.080597, 129.470352, -233.230957
1715797959.520742, 0.760608, 2.932149, -14.693365, -0.158484, -0.563132, 0.384288, 16.709412, 129.460648, -233.363693
1715797959.554024, -0.115820, 2.831143, -15.412972, -0.017095, -0.550096, 0.599947, 17.062347, 129.680206, -233.324158
1715797959.587460, -0.165948, 3.164686, -16.954240, 0.302272, -0.092827, 0.607463, 17.482391, 129.594528, -233.256622
1715797959.620795, 0.213533, 3.640833, -17.151163, 0.310623, 0.142810, 0.630099, 17.519379, 130.269211, -233.550583
1715797959.654126, 1.457171, 4.248511, -17.364696, 0.254154, 0.316286, 0.744591, 17.510300, 131.011932, -233.145309
1715797959.687380, 2.676717, 4.281730, -18.073379, 0.399988, 0.318587, 1.054932, 17.402634, 131.260300, -232.962799
1715797959.720798, 2.367417, 4.422240, -16.596007, 0.514954, -0.975396, 1.651278, 18.237122, 131.786987, -232.624176
1715797959.754038, 0.833930, 4.434660, -13.845967, 0.204202, -1.556568, 1.684003, 19.886154, 132.646317, -232.472382
1715797959.787457, -0.945261, 2.663100, -14.888343, 0.280171, -0.732929, 1.009159, 20.378647, 132.453613, -232.344559
1715797959.820693, -0.024690, 2.481291, -12.748076, 1.269329, -0.271953, 0.713337, 21.461105, 133.153656, -231.883453
1715797959.854132, -0.672621, 1.764227, -10.541520, 1.456854, -0.673500, 0.538030, 22.501389, 133.875717, -232.077530
1715797959.887406, -1.407791, 1.170166, -7.823503, 1.361835, -0.893105, 0.175244, 23.460327, 134.799759, -232.737839
1715797959.920792, -1.478120, 0.981623, -6.360795, 1.003306, -1.422131, 0.030002, 23.648697, 135.157150, -232.821182
1715797959.954046, -2.307113, 0.720655, -5.619341, 0.942474, -1.078123, -0.406671, 24.956345, 135.787430, -233.738525
1715797959.987368, -1.967286, 0.403573, -4.649091, 0.803009, -0.763550, -0.745371, 25.514130, 136.395065, -234.281998
1715797960.020774, -0.364517, -0.106991, -4.349516, 1.180600, -0.535471, -0.771975, 25.540497, 136.434326, -234.886932
1715797960.054222, 0.212336, -0.327108, -4.155436, 1.266130, -0.790795, -0.566963, 25.717041, 137.784393, -235.493530
1715797960.087446, -0.199467, -0.190638, -2.783708, 1.249614, -0.169032, -0.626006, 25.812668, 138.537918, -236.714081
1715797960.120825, -0.474351, -0.686088, -1.984344, 0.895229, -0.095148, -0.780175, 25.286942, 139.441330, -237.412598
1715797960.154091, 0.359430, -1.193210, -2.341529, 0.282137, -1.126192, -0.522823, 25.493210, 139.714035, -237.469879
1715797960.187494, 0.436194, -1.619677, -2.589179, 0.200950, -0.680384, -0.370620, 25.908524, 139.856613, -237.964752
1715797960.220810, 0.769736, -2.017115, -3.031807, 0.180858, 0.165222, -0.111217, 25.833801, 140.041962, -238.091660
1715797960.254046, 0.344316, -2.335843, -2.733131, 0.457152, 0.977098, 0.240716, 25.560593, 140.086624, -238.183868
1715797960.287215, -0.021398, -2.970755, -1.276858, 0.221605, 1.116930, 0.361722, 25.345245, 140.148453, -238.430679
1715797960.320800, -0.199467, -2.199822, -0.848894, -0.488771, 0.947518, 0.506516, 24.980148, 139.938019, -237.594009
1715797960.354062, -0.348955, -2.901473, -3.313575, -0.762972, 0.817420, 0.621971, 24.797363, 139.430344, -237.427795
1715797960.387561, -0.352247, -3.064877, -3.708469, -0.614290, 0.965505, 0.496292, 24.916550, 139.260956, -236.692749
1715797960.420726, 0.326360, -1.810316, -4.386177, -0.866909, 1.298650, 0.513352, 23.859009, 138.813690, -235.664520
1715797960.454139, 0.026037, -2.126350, -5.893477, -0.675464, 1.384046, 0.274807, 22.967850, 138.217346, -234.959061
1715797960.487562, 0.691176, -0.897975, -6.443395, -0.799182, 1.571461, 0.240814, 22.557007, 137.908813, -234.523621
1715797960.520722, 0.115221, -1.206229, -7.210886, -0.669996, 1.722592, -0.125760, 21.596512, 137.635132, -233.924240
1715797960.554119, 1.358560, 0.914585, -7.408408, -0.904364, 1.664846, -0.652410, 19.793213, 137.364532, -233.227051
1715797960.587485, 2.831892, 0.800561, -8.439262, -1.383246, 1.148252, -0.439823, 19.175705, 136.974106, -233.256714
1715797960.620727, 3.141193, 1.886032, -9.184008, -1.542653, 1.154114, -0.292280, 18.193924, 135.932999, -232.787308
1715797960.654045, 1.075445, 2.778770, -12.742989, -2.004081, 0.770392, -0.272306, 17.017426, 134.613449, -232.409241
1715797960.687374, 1.068263, 2.523937, -14.027029, -1.274573, 0.268407, -0.917219, 16.349136, 133.403763, -231.859787
1715797960.720728, 2.394651, 3.710414, -12.942755, -1.271363, 0.369255, -0.912034, 15.863922, 132.835556, -231.953812
1715797960.754039, 2.912696, 3.710713, -15.419557, -0.686783, 0.797330, -1.238134, 14.919281, 131.689011, -232.199203
1715797960.787377, 3.398719, 4.281132, -13.935451, -0.535223, -0.528691, -0.795440, 14.899887, 131.204437, -232.354065
1715797960.820728, 1.960103, 4.331709, -13.467833, -0.516759, -0.115483, -1.143029, 14.633789, 130.797043, -232.610901
1715797960.854054, 4.074183, 4.301183, -15.381698, -0.383495, -0.060592, -1.339121, 14.254135, 130.072815, -232.785873
1715797960.887377, 5.047127, 4.572177, -17.206529, 0.493172, -0.731507, -0.122151, 14.760773, 129.495834, -232.963013
1715797960.920722, 1.859397, 3.557933, -15.266328, 0.740553, -0.523652, -0.283913, 14.865662, 129.743286, -232.973770
1715797960.954111, 1.927632, 2.882918, -13.904925, 0.280242, -0.252716, -0.568930, 15.112106, 129.757095, -233.085098
1715797960.987444, 3.493739, 2.227206, -15.837045, 0.174099, -0.204916, -0.174209, 14.933014, 129.855392, -233.243622
1715797961.020747, 2.928857, 1.958008, -15.499313, 0.282681, -0.531546, 0.274420, 15.420074, 129.790833, -233.267410
1715797961.054081, 2.670133, 2.303970, -15.173253, 0.313778, -0.059944, 0.600260, 15.649551, 130.196930, -233.226364
1715797961.087415, 2.260276, 2.797924, -15.731102, 0.241311, 0.280847, 0.881185, 15.663025, 130.667526, -233.261490
1715797961.120752, 1.689708, 3.375525, -16.708086, -0.329463, -0.256888, 1.033503, 15.854111, 130.921448, -233.311890
1715797961.154061, 3.286640, 4.029441, -17.264289, -0.783440, 0.929000, 0.832113, 16.285019, 131.020477, -233.040756
1715797961.187382, 3.248632, 5.269189, -19.150022, -0.301018, 0.847168, 0.968880, 15.645996, 130.929276, -232.729767
1715797961.220788, 2.280327, 4.996100, -16.545729, -0.214363, -1.018864, 1.213171, 16.209442, 131.188568, -231.991318
1715797961.254029, 2.491167, 4.572476, -16.370653, 0.266012, -1.774844, 1.252200, 16.999146, 131.201538, -231.626038
1715797961.287545, 1.197849, 3.786430, -13.667001, 0.791265, -1.997610, 1.291945, 18.838699, 132.094635, -231.587280
1715797961.320713, 0.381127, 3.435380, -12.182895, 0.546158, -2.795752, 1.016616, 20.832947, 132.219589, -231.582748
1715797961.354130, -0.239570, 3.076848, -12.107478, 1.044559, -2.886882, 0.628071, 23.531662, 132.699127, -232.255493
1715797961.387379, -0.194080, 2.247557, -10.145878, 1.085674, -1.999033, 0.062875, 24.700500, 132.799042, -232.624878
1715797961.420728, -0.257826, 2.001403, -8.715493, 1.142926, -1.875294, -0.472300, 26.474716, 133.417511, -233.497482
1715797961.454082, -0.512210, 1.532289, -7.244854, 1.307902, -1.147672, -0.716744, 27.692123, 134.405945, -234.784607
1715797961.487559, -1.134253, 0.396689, -5.229834, 1.428176, -0.743401, -1.002568, 27.901520, 134.506042, -235.445755
1715797961.520646, -0.672022, 0.560542, -3.664026, 1.785135, -0.605292, -1.373404, 28.020966, 136.137558, -236.385117
1715797961.554034, 0.199018, 0.425569, -0.347758, 1.562845, 0.239425, -1.423630, 27.578293, 138.031723, -237.289261
1715797961.587438, 0.746841, 0.017059, -0.042048, 0.907667, -0.538083, -1.222079, 27.025742, 139.272079, -237.935745
1715797961.620775, 1.315614, -1.172710, -0.021099, 0.462766, -1.064257, -1.030334, 26.921097, 139.749329, -238.037582
1715797961.654239, 1.125125, -2.176778, -1.174655, 0.299178, -0.768652, -0.554876, 27.120407, 140.120911, -238.704285
1715797961.687397, 0.224456, -2.569577, -1.222689, 0.378755, -0.446352, -0.257779, 27.113800, 140.587280, -239.244888
1715797961.720730, -0.241665, -2.886958, -0.242712, 0.282589, 0.049245, -0.081689, 27.145477, 140.395294, -239.478592
1715797961.754069, -0.410905, -3.114707, -0.162357, -0.249408, 0.519805, 0.327392, 27.006134, 140.678665, -239.207794
1715797961.787398, -1.247828, -3.302053, -0.757615, -0.568648, 0.388922, 0.711609, 26.932831, 140.070435, -238.756180
1715797961.820771, -3.158850, -2.625691, -1.837999, -0.659419, 0.359811, 0.751182, 27.062073, 139.814178, -238.576950
1715797961.854089, -2.648436, -1.931971, -3.068918, -0.466402, 0.412939, 0.395537, 27.532303, 139.268829, -238.146332
1715797961.887557, -1.054945, -2.800318, -3.345598, 0.050456, 0.671851, 0.469972, 27.155792, 139.156631, -237.989334
1715797961.920727, -0.223559, -1.323545, -3.326893, 0.091816, 0.412984, 0.690764, 27.257416, 139.054688, -237.550995
1715797961.954157, 0.195876, -1.101333, -3.423110, -0.460922, 1.395140, 0.877944, 26.827362, 138.909485, -237.326706
1715797961.987399, -0.238223, -1.075745, -5.110723, -1.015800, 1.127828, 0.753153, 27.083786, 137.954269, -236.735062
1715797962.020799, 0.675464, -0.430208, -7.026683, -1.089934, 1.321712, 0.819370, 26.303452, 137.169815, -235.577164
1715797962.054143, -0.258723, -0.162207, -8.230068, -0.982281, 1.526596, 0.445927, 25.738693, 137.018860, -234.708389
1715797962.087369, 1.071854, 0.265906, -8.987234, -1.090039, 2.623649, -0.198529, 24.385544, 136.155365, -234.167389
1715797962.120832, 2.018761, 0.857423, -10.961403, -1.124476, 2.115438, -0.368779, 22.373840, 135.757980, -233.273682
1715797962.154240, 1.860893, 1.622371, -11.491719, -1.207371, 0.284816, 0.164916, 21.412857, 135.019241, -232.819382
1715797962.187455, -0.213982, 1.685368, -12.013505, -1.120613, 1.628989, -0.569445, 21.010376, 134.781296, -232.904892
1715797962.220938, -0.156521, 2.762759, -13.636176, -1.198404, 0.039513, -0.602947, 19.676437, 133.858032, -232.626007
1715797962.254065, -1.195455, 3.220501, -14.931588, -1.022743, -0.213483, -0.656859, 19.650711, 132.608459, -232.993958
1715797962.287396, -1.423951, 4.169203, -15.958551, -0.540335, -0.611227, -1.310479, 19.428894, 132.546860, -232.474777
1715797962.320748, 1.112107, 5.365855, -16.222362, -0.242768, -1.000660, -0.642031, 19.580093, 132.072205, -232.834274
1715797962.354073, -2.191892, 5.035006, -14.831181, -0.923189, -0.049141, -1.311703, 19.356873, 131.257614, -233.304810
1715797962.387436, 1.680281, 4.124611, -18.717120, -0.655523, 0.074924, -1.201861, 18.905960, 130.704132, -233.223846
1715797962.420917, 2.229451, 3.064578, -18.908357, 0.041841, 0.339204, -0.770076, 18.591583, 130.047089, -233.091675
1715797962.454082, 1.017386, 3.306093, -17.374871, 0.377022, 0.346728, -0.623982, 18.425552, 130.028397, -232.936157
1715797962.487395, 1.834407, 1.791761, -15.409830, 0.078089, 0.987819, -0.583121, 17.297775, 130.537094, -232.921555
1715797962.520855, 2.987814, 1.400907, -16.455498, 0.420980, 0.649933, 0.112231, 17.144699, 130.430252, -233.443192
1715797962.554165, 1.901146, 1.875258, -15.655834, 0.344228, -0.180930, 0.696502, 17.232361, 130.674179, -233.198502
1715797962.587433, 0.864606, 2.476053, -16.221016, 0.471924, -0.205689, 0.797122, 17.566132, 131.294479, -233.133224
1715797962.620823, 1.016788, 3.264045, -18.798523, 0.147815, 0.006792, 0.688722, 17.652100, 131.534348, -233.279999
1715797962.654076, 1.203535, 3.804087, -21.929241, 0.837788, -0.009990, 0.697523, 17.890259, 132.262177, -232.935699
1715797962.687413, 0.475698, 3.955820, -19.006669, 0.981365, -0.108785, 0.541383, 18.273590, 133.297653, -232.710632
1715797962.720807, 1.245583, 2.991854, -16.462381, 1.093239, 0.308633, 0.634694, 18.651489, 134.472046, -233.091248
1715797962.754186, 1.067664, 2.854637, -14.273781, 0.725789, -0.622832, 0.904185, 18.874237, 134.823303, -232.884003
1715797962.787405, -0.515950, 2.088642, -12.220005, 0.753700, -2.061628, 0.731117, 20.483017, 135.291061, -233.095474
1715797962.820836, -0.739509, 1.439214, -11.174038, 0.569662, -1.103385, 0.048403, 21.773010, 135.790985, -233.264954
1715797962.854082, -0.176872, 0.358382, -11.963227, 1.164889, -1.553531, 0.078327, 22.825211, 135.961197, -233.051605
1715797962.887501, -0.330549, 0.636259, -8.543858, 1.135898, -1.647704, -0.098856, 23.824570, 136.922821, -233.858459
1715797962.920744, -1.112855, -0.103549, -6.343288, 0.489136, -0.981569, -0.564424, 24.628510, 137.071045, -234.752029
1715797962.954075, -1.870320, -0.151882, -7.857919, 1.293703, -0.621247, -1.117017, 25.048309, 137.447418, -235.206482
1715797962.987418, -0.756867, 0.332195, -4.182820, 1.567170, -0.124098, -1.416129, 25.006454, 138.570129, -236.331451
1715797963.020751, 1.128118, 0.053570, -1.378911, 1.390416, -0.017422, -1.101821, 24.271423, 139.947403, -236.923019
1715797963.054132, 0.317681, -0.228197, -1.048062, 0.840161, -0.772377, -0.875302, 24.039795, 140.659256, -237.734787
1715797963.087419, 0.448614, -0.683245, -1.959355, 0.840524, -1.133349, -1.043665, 23.687286, 141.077972, -238.019333
1715797963.120741, 0.980276, -0.901118, -1.091906, 0.946445, -0.758014, -0.883658, 23.961761, 141.814896, -239.115448
1715797963.154191, 0.481983, -1.812111, 0.051026, 0.559026, -0.578296, -0.759456, 23.974045, 142.289612, -239.812714
1715797963.187442, 0.275333, -2.596512, 0.636558, -0.060601, -0.539588, -0.510583, 23.672485, 142.231293, -240.002304
1715797963.220848, 0.720355, -3.331681, -0.760159, -0.550561, -0.155911, -0.063362, 23.715347, 142.373306, -239.868362
1715797963.254105, -0.446519, -3.259107, -1.328183, -0.621760, 0.496215, 0.373666, 23.703705, 141.987381, -239.505707
1715797963.287600, -0.933439, -2.806902, -2.094029, -0.737672, 0.570158, 0.439319, 23.639191, 142.060547, -238.669189
1715797963.320783, -0.083498, -2.168997, -2.983175, -0.655918, 0.412642, 0.618730, 23.754791, 141.241974, -238.457260
1715797963.354061, 0.157568, -1.256208, -3.110816, -0.792195, 0.351018, 0.658859, 23.591553, 140.764465, -237.947235
1715797963.386624, 1.058836, -1.652897, -3.812317, -0.882539, 0.760424, 1.016838, 24.262115, 140.393127, -237.453781
1715797963.420240, 0.182857, -1.422904, -4.825214, -0.757129, 0.958989, 1.095915, 24.050781, 139.877518, -236.885544
1715797963.454138, 0.178518, -1.332822, -5.043386, -1.047537, 1.423021, 1.032789, 24.285217, 138.964920, -235.996368
1715797963.487433, -0.614711, -1.491887, -5.693860, -0.877584, 2.130761, 0.745579, 23.319199, 138.477173, -234.924393
1715797963.520754, -1.041927, 0.595558, -5.885546, -1.438599, 1.605749, 0.342480, 22.536774, 137.878326, -234.173233
1715797963.554163, -0.969352, -0.368109, -7.247099, -1.707028, 1.951188, -0.160588, 21.602356, 137.084534, -233.568726
1715797963.587480, -0.318130, 1.846827, -8.292168, -1.819674, 2.416800, -1.154290, 19.335403, 135.837158, -232.305161
1715797963.620761, 0.474950, 1.631200, -11.008240, -1.762169, 0.837834, -1.360103, 16.953354, 134.728790, -231.994858
1715797963.654181, 0.390704, 3.469946, -11.233744, -1.566710, 0.315272, -1.246152, 16.698029, 134.063736, -231.729507
1715797963.687420, 1.340304, 4.811747, -12.439524, -1.406795, 1.304543, -1.680863, 15.610001, 132.798035, -231.851974
1715797963.720755, 3.363105, 4.724508, -13.325827, -1.167578, 1.470775, -1.339797, 13.575241, 131.609451, -231.950684
1715797963.754086, 2.777124, 6.294207, -16.080805, -0.838204, -0.025031, -1.034713, 13.403580, 130.821579, -231.782837
1715797963.787494, 2.919579, 5.628618, -15.341895, -0.495246, -0.840436, -0.837054, 13.559250, 130.095032, -232.118027
1715797963.820759, 3.166332, 6.431125, -15.133001, -0.032776, -0.184901, -0.615078, 13.585373, 129.207748, -232.254852
1715797963.854106, 2.790741, 5.915324, -16.419585, 0.351740, 0.956878, -1.114801, 13.495346, 128.706772, -232.563995
1715797963.887414, 3.764732, 5.030816, -16.083648, 0.417462, -0.137889, -0.618935, 12.685516, 128.833176, -233.102539
1715797963.920827, 2.217180, 4.828207, -14.894927, 0.274322, -0.989287, -0.389998, 12.866760, 128.661865, -233.118805
1715797963.954139, 1.054047, 3.469647, -13.137733, -0.397844, -0.581062, -0.762527, 13.323669, 128.483429, -233.128220
1715797963.987439, 2.233491, 2.790143, -17.012449, 0.032116, 0.632403, -0.867712, 13.455139, 128.305344, -233.571121
1715797964.020765, 3.680636, 2.291401, -16.984467, 0.533411, 0.458387, -0.261535, 12.886383, 127.874237, -233.374329
1715797964.054145, 4.179378, 2.556409, -15.204078, 0.331611, -0.249412, 0.501741, 12.547623, 128.602020, -233.539230
1715797964.087421, 4.316297, 3.280804, -16.184205, 0.000991, -0.133263, 1.002333, 13.118942, 128.852066, -233.577347
1715797964.120857, 5.720646, 4.225317, -19.905243, -0.102536, -0.284013, 2.008807, 12.973907, 129.064804, -233.451309
1715797964.154095, 5.154716, 5.324854, -21.618294, 0.847744, -0.601810, 2.596877, 13.920227, 130.209396, -232.693802
1715797964.187425, 1.371129, 6.543203, -15.982344, 0.809055, 0.183144, 2.251343, 14.774765, 131.495590, -232.802673
1715797964.220954, 1.724274, 5.675156, -17.611897, 0.599863, -0.703092, 1.950402, 15.042404, 132.110947, -232.405319
1715797964.254176, 2.288707, 4.922179, -14.818612, 0.742280, -1.489511, 1.918872, 16.820892, 132.859299, -232.485580
1715797964.287420, 0.280122, 4.060716, -13.083115, 0.550155, -1.448128, 1.618540, 18.392242, 133.379944, -231.759201
1715797964.320759, -1.067664, 2.602647, -11.988067, 1.256897, -1.448990, 0.839815, 19.644989, 133.736038, -231.948059
1715797964.354182, -0.575057, 1.933916, -9.146000, 1.316163, -1.598830, 0.616366, 20.772018, 134.468094, -232.072708
1715797964.387456, -1.897854, 1.352275, -7.812879, 1.168015, -1.509696, 0.125779, 22.702240, 135.382523, -232.920670
1715797964.420014, -2.163012, 1.147421, -5.809081, 0.792764, -1.278709, -0.665739, 23.285767, 135.648239, -233.127655
1715797964.454193, 1.464054, 0.556053, -7.857770, 0.280234, -1.062702, -0.594708, 23.682739, 136.069031, -233.506805
1715797964.487502, 1.162684, -1.030405, -9.974543, 1.614190, -1.109581, -0.346360, 24.639526, 136.375748, -234.389587
1715797964.520871, -0.096217, 0.278176, -3.323002, 2.053739, -0.059268, -0.471765, 24.497467, 137.754257, -235.461807
1715797964.554175, -0.312743, -0.192733, -2.559850, 1.484559, -0.497790, -0.946914, 24.291504, 138.585861, -236.279617
1715797964.587436, 0.896778, -0.462829, -2.526781, 1.493879, -1.478229, -1.015147, 24.620132, 139.657532, -237.339218
1715797964.620822, 1.264587, -0.656011, -0.634314, 1.047976, -1.293919, -0.668143, 24.696579, 140.719818, -238.384705
1715797964.654203, 0.134375, -1.745972, -0.675913, 0.807435, -0.288170, -0.517495, 24.877228, 140.888489, -239.015976
1715797964.687435, -0.127491, -2.225410, -0.301819, 0.538754, -0.431399, -0.328085, 24.480850, 141.621124, -239.108810
1715797964.720863, -0.315286, -2.658013, -0.114772, 0.184191, -0.114882, -0.162605, 24.688919, 142.040222, -239.827286
1715797964.754186, -0.305261, -2.824110, -0.709881, -0.208055, 0.325207, 0.061626, 24.546173, 141.640854, -239.736420
1715797964.787585, -0.238971, -2.810793, -1.059734, -0.429638, 0.289423, 0.440872, 24.493057, 141.640762, -239.236176
1715797964.820763, -1.360655, -2.287660, -1.517924, -0.521751, 0.577560, 0.547378, 24.866531, 141.328720, -239.292694
1715797964.854096, -0.758663, -1.626261, -1.967884, -0.707873, 0.794089, 0.473497, 24.897781, 140.663635, -238.476944
1715797964.887482, -0.523133, -1.608006, -2.170344, -0.827037, 0.792930, 0.371256, 24.102249, 140.417343, -238.212601
1715797964.920847, 0.716315, -1.026664, -3.134160, -0.925433, 0.479317, 0.549427, 24.024628, 140.162277, -237.596542
1715797964.954098, 0.379481, -1.316961, -3.961207, -1.077234, 0.790942, 0.738826, 24.248947, 139.225723, -236.448181
1715797964.987444, 0.112677, -0.349853, -4.428525, -1.282021, 1.648431, 0.502163, 24.045197, 138.802185, -236.110382
1715797965.020869, -0.058209, -0.072574, -5.145588, -1.643947, 2.073277, 0.268842, 22.794632, 138.029449, -235.005798
1715797965.054182, -0.345214, 0.246603, -6.961291, -1.985684, 1.463966, -0.139511, 21.470444, 136.699707, -233.513351
1715797965.087534, 1.292121, 0.939575, -9.110237, -2.030900, 1.865046, -0.477478, 19.931107, 135.504684, -232.635803
1715797965.120867, 1.416021, 2.415001, -11.060164, -1.691019, 1.804720, -0.846050, 18.876297, 134.913086, -232.246552
1715797965.154192, 2.120514, 3.934721, -11.810148, -1.669312, 0.888282, -0.904080, 17.540176, 133.602631, -231.764175
1715797965.187443, 1.631050, 4.178929, -12.569409, -1.650975, 0.809829, -1.017583, 16.480682, 132.256302, -231.700226
1715797965.220877, 2.221670, 4.667795, -13.701268, -1.350394, 0.924038, -1.106228, 15.774567, 131.784332, -231.579910
1715797965.254102, 2.480094, 5.503521, -15.378107, -0.909858, 0.250687, -0.812449, 15.261795, 130.514908, -231.729721
1715797965.287500, 2.405125, 5.932084, -14.934282, -0.610813, -0.231728, -0.697273, 14.656754, 129.906006, -231.459488
1715797965.320864, 3.041085, 5.625626, -18.969409, 0.449087, -0.374219, -0.407088, 14.657562, 128.970459, -231.883789
1715797965.354179, 3.578434, 5.753117, -15.894207, 1.489385, -1.536229, 0.411714, 14.945129, 129.318359, -232.489380
1715797965.387458, 0.778714, 4.934599, -12.733412, 0.238799, -0.496394, 0.255708, 16.328049, 129.827316, -232.876831
1715797965.420852, -0.107589, 3.494188, -14.518589, -0.421904, -0.133145, -0.346888, 16.138931, 129.440414, -232.796585
1715797965.453240, 1.838897, 2.123358, -17.053599, -0.633686, -0.281920, -0.124847, 16.551651, 129.188873, -233.123520
1715797965.487510, 1.533935, 1.686416, -19.041535, 0.350922, 0.383667, -0.022544, 16.554245, 128.602097, -232.920105
1715797965.520777, 2.344672, 1.607108, -16.829292, 0.540158, 0.692752, 0.359507, 16.311249, 128.994720, -233.206985
1715797965.554104, 2.201020, 1.799392, -15.626655, 0.122055, 0.413484, 0.797971, 16.170288, 129.624893, -233.159317
1715797965.587461, 1.930325, 2.738967, -17.020380, -0.376222, -0.253804, 0.990420, 16.256409, 129.925644, -233.182617
1715797965.620854, 1.882142, 4.804265, -17.922395, -0.369475, -0.411941, 1.073048, 16.833939, 130.073853, -232.635452
1715797965.654253, 2.125303, 5.806388, -19.420567, 0.081081, 0.310025, 1.106518, 17.253952, 130.020142, -232.362488
1715797965.687402, 2.309806, 6.542156, -17.132009, 0.476411, 0.457188, 1.207832, 17.382141, 130.450211, -232.218674
1715797965.720892, 0.992247, 5.783194, -16.334890, 0.455191, -1.491386, 1.194757, 17.704620, 131.035400, -231.722748
1715797965.754215, 0.952443, 4.842123, -13.454964, 0.388325, -0.977740, 0.648591, 19.039612, 131.691742, -231.550903
1715797965.786777, 2.052579, 4.230854, -13.490877, 0.819558, -0.858628, 0.679070, 19.555252, 132.084900, -231.552078
1715797965.820357, -0.034866, 3.249829, -10.846482, 1.205132, -1.155045, 0.206856, 20.646515, 132.666580, -231.386490
1715797965.854170, 0.202160, 2.391957, -9.857377, 1.100476, -1.687496, -0.160536, 22.088425, 133.222305, -232.112289
1715797965.887530, 1.904438, 1.587056, -10.415974, 1.303530, -2.234201, -0.025070, 22.884720, 133.510620, -232.420975
1715797965.920837, 0.189292, 0.776769, -9.168595, 1.935307, -1.359690, -0.402600, 24.439941, 134.709045, -233.316315
1715797965.954145, 0.145597, 0.396091, -6.746860, 2.387808, -0.498765, -0.694830, 25.503860, 136.168518, -234.560333
1715797965.987481, 0.423774, 0.813430, -2.655170, 1.983697, 0.196031, -0.924197, 25.134659, 137.864761, -235.878448
1715797966.020789, 0.436044, -0.635212, -1.289876, 1.368521, -0.304274, -0.795929, 24.547699, 138.212326, -236.205734
1715797966.054223, -0.442778, -1.222539, -1.570147, 0.897955, -2.233232, -0.699694, 25.377975, 139.375214, -237.164749
1715797966.087557, -0.586729, -1.366491, -0.975039, 0.638776, -1.739366, -0.798395, 26.014877, 140.142960, -238.678757
1715797966.120817, 0.106392, -1.911620, -1.358111, 0.579811, -0.474899, -0.696424, 26.000778, 140.389359, -238.980179
1715797966.154186, -0.604237, -2.073977, -1.995417, 0.694613, -0.645049, -0.374918, 26.275314, 140.901047, -239.459564
1715797966.187556, -0.679055, -2.440290, -0.716914, 0.492632, -0.294648, -0.274707, 26.042938, 141.282333, -240.016586
1715797966.220914, -0.648230, -2.529773, -0.758064, 0.091220, 0.060767, -0.096606, 26.018372, 141.669327, -240.329437
1715797966.254222, -0.391751, -2.553117, -1.323694, -0.226681, 0.226302, 0.229367, 25.937012, 141.640686, -240.278183
1715797966.287561, -0.306009, -3.009960, -1.677138, -0.424259, 0.249875, 0.547142, 25.763306, 141.229721, -239.552338
1715797966.320783, -0.692373, -1.607856, -2.055721, -0.593048, 0.509051, 0.804366, 26.018097, 140.609253, -239.522598
1715797966.354161, -1.294814, -1.923442, -2.707992, -0.756188, 0.841831, 0.855488, 26.261353, 140.285141, -238.965134
1715797966.387526, -1.308581, -1.803133, -3.448698, -0.758868, 0.358326, 0.830154, 26.257431, 139.738434, -237.941895
1715797966.420885, -1.148469, -0.031873, -3.679589, -1.005036, 0.535757, 0.850397, 26.553238, 139.223907, -237.879013
1715797966.454141, -0.818967, -1.570147, -5.440973, -0.905661, 1.870851, 0.654120, 26.402023, 138.836472, -237.155533
1715797966.487552, -1.220744, -1.455226, -6.315455, -0.722989, 2.090490, 0.519399, 25.577576, 138.101791, -236.125702
1715797966.520805, -2.029984, -0.835427, -6.418106, -0.719090, 1.600814, 0.048087, 24.226425, 137.472656, -235.225632
1715797966.554245, -0.700603, 0.250942, -6.170157, -1.205999, 2.285376, -0.410831, 22.870102, 137.138306, -233.896530
1715797966.587453, -0.171335, 0.998532, -10.133608, -1.461334, 1.514969, -1.005205, 21.532166, 136.516495, -233.641769
1715797966.620804, 1.280000, 0.819565, -11.355100, -0.663661, 1.703205, -1.283960, 19.632446, 136.020554, -233.021408
1715797966.654238, 1.789965, 2.805406, -11.920281, -0.902603, 1.062600, -1.344736, 17.759689, 135.440430, -232.751419
1715797966.687559, 3.161992, 3.346196, -12.075306, -1.176016, -0.107758, -1.237807, 17.339584, 135.094437, -232.855255
1715797966.720805, 3.719991, 3.079243, -13.675680, -1.234631, 0.595413, -0.974294, 16.917206, 133.984100, -232.413818
1715797966.754149, 2.726996, 3.360262, -16.772580, -0.613994, 0.838478, -1.055584, 15.808212, 133.288757, -232.689545
1715797966.787548, 3.856460, 2.971952, -16.527473, -0.073022, -0.646159, -0.483916, 15.460541, 132.825165, -232.943665
1715797966.820804, 2.783110, 4.226215, -13.662811, -0.640728, -0.583794, -0.335072, 15.567612, 132.611237, -232.914780
1715797966.854126, 1.875707, 4.001609, -16.260370, -0.522494, 0.817963, -1.084351, 15.076340, 131.505447, -232.949493
1715797966.887626, 2.726248, 3.362207, -15.419407, -0.774585, 0.117397, -0.922016, 14.447281, 131.099243, -232.972733
1715797966.920624, 3.634398, 2.381931, -17.297658, -0.403286, -0.211616, -0.450958, 14.553452, 130.632202, -233.243011
1715797966.954183, 2.820968, 1.767519, -16.348956, -0.243330, -0.004391, -0.214669, 14.629730, 130.239670, -233.175308
1715797966.987557, 2.894889, 1.431882, -18.553716, -0.134632, -0.201092, 0.275103, 14.810944, 130.225433, -233.190628
1715797967.020808, 1.855207, 1.888127, -18.540398, 0.321689, 0.030985, 0.772594, 14.931488, 130.180817, -233.290970
1715797967.054161, 1.628656, 2.546832, -19.054404, 0.306517, 0.091406, 0.869863, 14.910446, 130.697983, -232.920212
1715797967.087441, 2.986318, 3.792415, -19.984850, 0.424381, -0.147663, 1.228785, 15.289383, 131.246094, -233.094391
1715797967.120839, 2.249951, 4.617368, -17.932870, 0.186049, 0.170541, 1.151127, 15.549225, 132.288422, -232.531403
1715797967.154235, 3.370737, 4.651784, -18.467974, 0.303218, -0.357040, 1.464133, 15.700287, 132.666367, -232.577042
1715797967.187500, 1.367987, 4.406229, -15.106814, 0.922855, -1.833004, 1.687018, 17.601532, 133.089813, -232.271042
1715797967.220914, 0.026635, 3.729418, -12.481273, 0.371776, -1.439690, 0.820403, 19.181870, 133.496872, -232.015152
1715797967.254202, 1.397316, 2.440290, -13.769802, 1.091484, -0.884228, 0.617838, 20.057831, 133.558426, -231.865753
1715797967.287460, 0.240168, 2.145205, -10.277410, 1.625244, -1.068402, 0.356252, 21.056747, 134.621857, -232.294876
1715797967.320832, 0.396540, 1.504606, -8.507646, 1.397471, -1.543754, -0.133795, 22.339478, 135.604187, -233.030182
1715797967.354228, 1.097143, 0.814627, -7.326257, 1.236110, -1.455535, -0.158260, 22.971191, 136.274002, -233.834137
1715797967.387485, 0.168642, 0.243610, -7.179612, 1.153203, -1.649970, -0.291416, 24.349548, 136.621490, -234.339523
1715797967.420836, -0.650475, -0.170886, -6.478261, 1.205535, -1.343646, -0.695686, 25.213074, 137.427750, -235.253052
1715797967.454167, -0.463577, -0.488268, -5.415834, 1.335945, -0.659223, -0.907747, 25.177032, 138.610504, -236.086777
1715797967.487558, 0.109834, -0.760309, -3.728969, 1.138431, -0.144681, -0.906046, 25.098495, 139.102951, -236.702881
1715797967.520816, 0.463877, -1.472733, -4.405481, 1.022073, -0.523610, -0.710674, 24.824432, 139.912537, -237.668060
1715797967.554094, 0.202310, -1.531391, -3.996671, 1.369390, -0.632128, -0.668711, 25.061569, 140.832214, -238.908737
1715797967.587568, 0.306907, -1.275810, -2.575712, 1.216911, -0.710732, -0.571176, 24.773560, 141.334854, -239.153290
1715797967.620831, 0.168791, -1.839645, -1.253813, 0.879646, -0.707725, -0.560493, 24.606583, 141.850159, -240.136871
1715797967.654116, 0.581791, -2.360533, -0.942268, 0.664387, -0.103896, -0.282742, 24.576675, 142.378998, -241.072159
1715797967.687503, 0.182259, -2.720112, -0.297480, 0.322210, 0.171238, 0.005247, 24.304657, 142.756165, -241.240356
1715797967.720839, -0.862511, -3.046173, -0.250793, 0.029422, 0.305148, 0.218704, 24.669586, 142.753433, -241.252274
1715797967.754245, -1.032649, -2.697966, -0.039355, -0.450700, 0.476617, 0.499735, 24.648224, 142.763947, -241.191925
1715797967.787503, -0.907552, -1.893215, -0.457592, -0.710724, 0.826828, 0.914895, 24.877655, 142.241882, -240.739075
1715797967.820803, -2.076072, -1.876156, -1.299154, -0.779515, 1.490724, 0.981808, 24.980377, 141.997604, -240.185089
1715797967.854172, -1.645565, -0.893785, -2.254889, -0.944208, 1.270748, 0.977470, 24.773041, 141.425934, -239.306488
1715797967.887550, -1.183185, -1.480814, -2.906710, -1.158153, 1.163702, 0.996180, 24.739090, 140.304459, -238.060303
1715797967.920839, -1.359907, -0.726042, -3.670012, -1.095406, 1.617324, 0.582563, 24.610855, 140.037598, -237.318039
1715797967.954140, -0.461931, -1.167173, -4.588787, -1.429265, 1.985373, 0.002389, 23.857300, 139.252808, -236.028000
1715797967.987510, 0.716465, -0.837671, -6.458658, -1.453641, 1.228592, -0.218098, 22.480743, 138.406448, -235.108932
1715797968.020844, 1.767819, 0.944812, -7.349601, -1.820933, 1.305842, -0.465785, 21.404922, 137.500412, -233.911407
1715797968.054203, 2.580201, 0.990002, -10.292823, -1.884408, 0.939928, -0.842494, 20.587296, 136.796906, -233.424820
1715797968.087507, 3.269731, 1.532439, -11.925668, -1.721369, -0.018125, -0.623145, 19.607986, 135.814560, -232.743301
1715797968.120823, 2.663250, 2.611775, -12.027272, -1.357974, 0.979962, -0.569347, 19.071121, 134.603317, -232.507294
1715797968.154173, 2.637213, 2.953098, -15.314511, -1.466252, 1.547258, -1.037075, 17.960876, 134.299255, -232.435135
1715797968.187533, 3.556587, 4.105906, -16.628030, -0.905340, -0.657992, -0.175442, 17.457886, 132.994644, -232.011993
1715797968.220947, -0.170886, 3.614945, -14.808736, -1.102071, 0.334605, -1.213716, 17.423462, 132.431046, -232.115585
1715797968.254200, 4.597466, 4.347870, -18.243218, -0.743640, -0.676082, -0.710020, 17.203171, 131.404175, -232.456696
1715797968.287557, 1.257106, 4.166061, -15.615881, -0.578862, 0.067436, -0.536754, 17.423859, 131.040207, -232.584106
1715797968.320825, 0.904709, 3.877709, -16.333842, -0.746725, -0.192580, -0.832959, 17.290054, 130.070343, -232.661926
1715797968.354294, 2.967164, 3.639486, -17.530345, -0.185816, 0.645302, -0.670900, 16.673065, 129.881424, -232.765442
1715797968.387542, 2.957737, 3.098995, -17.707964, 0.364114, 0.192549, -0.078294, 16.549744, 129.547256, -232.852524
1715797968.420865, 2.407819, 2.756474, -17.671902, 0.224009, -0.690330, 0.403197, 16.810196, 129.873917, -232.957275
1715797968.454181, 1.806126, 2.313248, -18.807801, 0.725941, -0.520541, 0.850882, 17.210754, 130.422913, -233.095352
1715797968.487516, -0.106991, 2.770540, -17.411383, 0.807618, -0.473885, 1.109162, 17.453552, 130.953796, -233.082993
1715797968.520844, -0.421379, 2.590377, -17.125874, 0.544881, -0.130863, 0.895671, 18.043213, 131.513046, -233.212784
1715797968.554256, 0.550816, 3.199102, -19.006220, 0.745112, -0.026888, 0.816363, 18.202225, 132.290970, -233.402359
1715797968.587519, 1.540519, 3.766827, -15.886725, 0.466975, 0.415948, 0.634132, 18.419189, 132.809860, -232.926056
1715797968.620960, 2.949806, 3.810372, -15.116840, -0.182552, 0.364562, 0.929882, 18.014023, 133.426559, -232.743881
1715797968.654259, 1.780239, 3.849427, -16.061502, 0.040949, -1.118976, 0.979858, 18.847534, 133.100372, -232.245575
1715797968.687521, 0.628777, 3.663727, -11.314997, -0.253685, -1.017218, 0.841782, 20.063980, 132.909866, -231.988266
1715797968.720853, 0.933290, 2.041805, -13.176638, -0.354584, -1.485958, 0.395316, 20.739822, 132.666092, -231.839249
1715797968.754225, 1.315913, 1.600823, -14.451700, 0.660856, -2.089878, 0.388155, 22.623917, 132.690338, -231.823456
1715797968.787501, -1.167772, 1.603217, -11.178079, 1.081824, -1.264693, -0.190760, 23.843857, 132.729675, -232.246231
1715797968.820879, -0.197671, 1.483507, -9.892841, 1.362783, -1.180505, -0.966743, 24.833221, 133.954453, -233.098206
1715797968.854266, 1.250970, 1.510442, -6.790405, 1.300785, -1.022870, -1.070912, 25.256271, 134.705704, -233.501770
1715797968.887507, 2.258480, 0.175076, -4.007295, 1.217356, 0.527325, -0.891912, 24.960327, 135.786392, -234.040726
1715797968.920859, 1.333570, -0.010774, -2.100014, 0.887097, 1.131991, -0.197890, 23.886597, 136.568832, -234.588501
1715797968.954184, -0.648829, 0.141108, -2.756624, 0.586507, -0.339242, -0.077351, 23.888382, 136.846924, -234.388611
1715797968.987595, -2.234838, -0.077213, -3.122189, 0.667086, -1.597195, -0.572116, 24.231232, 137.201294, -235.002716
1715797969.020896, -0.241365, -0.985962, -1.715296, 0.973540, -1.459186, -0.949760, 24.831863, 138.086472, -236.048233
1715797969.054185, 0.525378, -1.235558, -0.968455, 0.933369, -0.696922, -0.559272, 25.107056, 138.449524, -236.003891
1715797969.087548, -0.482132, -1.571195, -0.899771, 0.669969, -0.568592, -0.378601, 25.190216, 139.137436, -236.992203
1715797969.120857, -1.050755, -1.994969, -0.749684, 0.568069, -0.071342, -0.301631, 25.298859, 139.785782, -237.311707
1715797969.154272, -0.447117, -2.195782, -0.628927, 0.176011, 0.054252, 0.124842, 25.230911, 139.923920, -237.555161
1715797969.187571, -0.892289, -2.432359, -0.803704, -0.288604, -0.004905, 0.426070, 25.374969, 139.902267, -237.617813
1715797969.220958, -1.281496, -1.274463, -1.817947, -0.513593, 0.279154, 0.457487, 25.355087, 139.750580, -237.258514
1715797969.254265, 0.092027, -1.631050, -1.670255, -0.446089, 0.578997, 0.648388, 25.459839, 139.210526, -237.105362
1715797969.287567, 1.074099, -0.868796, -1.499818, -0.933969, 0.359072, 1.292224, 25.619781, 139.012268, -236.736099
1715797969.320831, -0.746093, -0.836025, -3.627365, -1.289978, -0.032058, 1.696244, 26.276199, 137.484207, -236.093048
1715797969.354188, -1.367089, -1.016788, -4.048296, -1.011399, 1.031632, 1.170334, 26.850418, 136.466553, -235.338501
1715797969.387563, -0.147992, -0.696563, -4.919336, -1.102798, 1.707325, 0.989298, 25.979752, 135.367630, -234.352036
1715797969.420958, 0.569371, -0.388908, -6.535871, -1.087596, 2.158940, 1.060756, 25.607086, 134.950302, -233.749908
1715797969.454220, -0.956035, -0.292542, -9.574861, -0.683539, 1.303597, 0.745556, 24.350159, 133.871536, -232.860458
1715797969.487558, -0.389058, 0.166696, -9.213786, -0.375389, 2.349933, -0.139081, 23.083862, 133.906525, -232.303406
1715797969.520862, 0.467917, 0.856975, -10.853066, -0.534022, 1.769736, -0.911808, 21.967026, 133.828293, -232.152176
1715797969.554233, 3.426402, 2.249951, -11.180174, -0.523853, 1.419344, -1.014774, 20.420242, 133.788391, -232.094437
1715797969.587509, 3.320159, 2.656367, -13.880833, -0.649038, 1.257282, -0.952106, 18.721451, 133.278091, -231.978516
1715797969.620859, 2.187702, 3.789423, -14.861259, -0.764457, -0.869743, -0.789966, 18.339157, 133.149948, -232.221603
1715797969.653714, 2.227954, 3.664026, -15.075689, -0.873669, 1.252149, -1.687715, 17.786942, 132.621017, -232.305389
1715797969.687588, 3.842694, 4.262278, -16.515502, -0.058388, 0.310400, -1.486954, 16.261642, 132.142014, -232.183380
1715797969.720845, 4.200328, 4.876690, -14.758009, -0.251364, -0.926299, -0.789285, 16.414749, 131.669144, -232.673904
1715797969.754148, 3.124134, 4.254496, -15.830162, -0.383533, -0.640873, -0.717926, 16.473053, 131.428528, -232.768265
1715797969.787603, 4.167557, 4.059967, -17.700632, 0.657741, 0.500128, -0.252275, 16.651138, 130.666031, -232.745132
1715797969.820847, 2.505981, 3.041235, -17.754651, 0.838556, -0.351475, 0.179037, 16.534073, 131.413162, -233.069183
1715797969.854175, 1.502810, 1.421857, -14.753669, -0.218262, -0.769031, 0.298564, 16.960464, 131.361771, -233.418182
1715797969.887497, 1.273117, 0.903213, -19.379865, 0.283625, 0.188632, 0.362624, 17.266556, 131.372314, -233.393753
1715797969.920916, 0.668581, 0.887950, -18.238130, 0.262846, -0.744847, 0.717037, 17.564087, 131.603928, -233.554489
1715797969.954183, 0.653916, 1.161038, -18.366819, 0.144262, -0.493590, 0.801071, 17.986710, 131.723236, -233.306549
1715797969.987666, 1.479317, 2.033276, -19.327492, 0.477961, -0.398592, 0.949563, 18.595108, 132.150818, -233.646210
1715797970.020895, 0.999729, 3.214665, -18.168250, 0.257501, -0.433721, 0.683270, 19.237976, 132.643097, -233.317505
1715797970.054244, 3.079243, 3.168876, -17.950377, 0.356908, 0.023172, 0.913843, 19.360809, 133.079391, -232.770569
1715797970.087556, 1.733252, 3.504213, -15.486893, 0.303904, -0.467906, 1.137967, 20.069351, 133.656830, -232.770096
1715797970.120979, 0.758513, 2.989460, -14.888642, 0.063980, -1.732367, 0.693934, 21.310623, 133.477448, -232.819168
1715797970.154256, 2.355745, 2.520346, -14.056059, 0.608315, -1.048679, 0.822442, 22.699722, 133.747559, -232.669418
1715797970.187535, -0.813131, 1.983596, -12.162694, 0.792171, -1.795366, 0.719693, 23.525787, 133.999466, -232.760239
1715797970.220948, -1.114651, 1.537377, -9.396344, 0.601443, -1.943120, -0.023577, 25.280075, 134.273270, -233.757736
1715797970.254254, -0.421679, 0.906954, -8.598326, 0.672622, -0.854270, -0.430442, 26.612564, 134.488663, -234.007477
1715797970.287548, -0.746542, 1.561319, -6.389376, 0.573335, -0.839099, -0.604646, 27.314728, 134.933899, -234.517151
1715797970.320841, -2.116325, 1.435773, -3.595043, 0.004286, -0.464554, -1.478101, 27.193970, 135.201874, -234.675888
1715797970.354278, -0.414646, 0.026635, -4.975301, -0.038740, -0.924289, -1.636326, 26.995789, 135.555435, -234.972473
1715797970.387574, 1.212514, -0.436493, -5.753566, 0.736447, -1.334753, -1.211867, 27.121506, 136.324112, -235.768845
1715797970.420840, 1.231218, -0.932392, -3.932626, 1.187272, -1.299828, -0.883762, 27.339645, 137.029953, -236.306854
1715797970.454214, 0.372448, -1.118840, -2.712930, 1.580843, -0.926324, -0.819221, 27.461914, 137.979370, -237.697174
1715797970.487266, -0.335488, -0.790835, 0.139462, 1.038037, -0.268495, -1.077465, 27.568512, 139.251465, -238.664597
1715797970.520838, 0.898125, -2.000505, -0.425420, 0.623497, -0.235611, -0.715076, 27.350800, 139.656326, -238.969879
1715797970.554210, -0.167594, -2.878878, -0.218621, 0.442366, -0.126657, -0.150208, 27.194077, 140.179764, -239.257843
1715797970.587603, -0.547674, -3.065476, -0.156970, 0.285726, 0.337512, 0.085074, 26.927216, 140.393661, -239.562454
1715797970.620913, -0.331148, -3.266140, 0.070779, 0.207835, 0.899692, 0.416532, 26.897491, 140.351837, -239.493896
1715797970.654210, -1.048361, -2.665195, 0.112378, -0.429029, 0.738300, 0.750769, 26.874222, 140.187195, -239.354980
1715797970.687566, -1.489942, -1.972972, -0.959476, -0.855393, 0.525466, 0.811511, 26.939499, 139.708939, -238.503952
1715797970.720912, -1.075894, -1.627309, -3.561824, -0.855113, 0.487073, 0.797060, 26.982651, 138.764236, -237.838898
1715797970.754289, -0.064195, -0.551265, -4.385130, -0.205592, 1.493633, 0.914277, 27.120026, 138.601761, -237.588104
1715797970.787518, -0.307655, -1.606958, -4.485387, -0.094638, 2.292837, 0.901421, 26.665482, 138.005722, -236.702774
1715797970.820868, 0.130933, -0.481085, -5.487510, -0.024258, 2.317978, 0.762538, 25.111588, 137.710785, -235.756622
1715797970.854213, -0.020351, -1.318756, -5.418677, -0.323772, 1.916704, 0.416305, 23.910751, 137.816864, -235.219666
1715797970.887636, 0.445471, 0.137367, -6.119579, -0.762215, 1.642148, -0.043649, 23.838821, 137.720703, -234.932022
1715797970.920911, 1.170914, -0.528670, -7.668329, -0.874982, 2.250378, -0.626452, 21.715286, 137.545792, -234.094360
1715797970.954187, 2.513313, 1.024120, -10.513239, -0.994370, 1.359769, -1.299471, 20.084213, 137.117828, -233.701431
1715797970.987544, 4.471471, 1.551143, -11.347618, -1.327744, 0.970073, -1.175321, 19.085709, 136.790298, -233.221054
1715797971.020875, 3.123535, 1.502661, -13.923629, -1.301128, -0.497424, -1.022108, 17.914490, 135.780533, -233.041397
1715797971.054294, 2.252345, 3.244891, -15.659575, -1.561916, -3.037464, -0.975703, 19.093567, 134.831543, -232.767731
1715797971.087550, 2.497601, 3.794510, -16.083798, -1.145428, 0.236242, -1.065596, 19.581284, 134.087402, -232.712677
1715797971.120877, -0.331747, 3.296067, -18.846557, -0.650232, 0.030473, -1.067187, 18.633698, 133.480057, -232.764389
1715797971.154243, -0.066888, 3.410241, -16.948853, -0.567189, -1.094011, -0.431250, 19.250931, 132.640213, -233.052185
1715797971.187603, -1.894113, 3.087323, -17.145477, -0.762335, -0.186023, -0.562043, 19.124390, 131.790314, -233.122620
1715797971.220923, -1.307533, 2.797176, -19.198654, -0.487846, 0.169763, -0.646227, 19.206787, 131.745804, -233.120514
1715797971.254139, 1.123928, 1.409287, -20.862026, -0.223616, 0.591966, -0.116871, 18.826172, 131.145340, -232.954681
1715797971.287613, 0.284910, 1.714548, -21.335778, 0.667336, 0.567331, 0.460641, 18.411896, 131.492508, -233.120926
1715797971.320858, 1.170914, 1.983895, -19.138500, 0.750595, 0.429383, 0.948244, 18.437851, 131.803375, -233.219604
1715797971.354203, 0.632817, 2.376993, -20.345776, 0.672574, 0.230671, 1.118554, 18.380676, 132.609741, -233.000900
1715797971.387517, 1.924489, 2.730437, -20.531476, 0.792078, 0.176274, 1.064822, 18.678268, 133.458740, -232.989182
1715797971.420861, 2.846556, 2.952200, -20.498257, 0.995000, 0.251710, 1.226151, 19.266129, 133.890610, -233.030899
1715797971.454221, 1.796399, 3.571251, -16.961422, 0.777794, -0.209992, 1.054262, 19.573685, 134.619751, -233.295135
1715797971.487527, 2.659958, 2.620454, -14.527267, 0.405337, -0.664268, 0.828980, 20.053757, 135.083298, -232.967087
1715797971.520882, 2.255637, 1.884835, -13.820679, 0.476656, -2.935868, 1.276582, 22.161087, 134.890015, -233.438095
1715797971.554226, 0.322170, 1.925686, -11.381287, 0.652587, -2.257663, 0.898597, 24.074905, 134.945175, -233.643921
1715797971.587559, -0.715717, 0.902464, -9.766248, 0.735980, -1.277544, 0.175683, 25.407242, 135.279434, -234.443283
1715797971.620868, -0.678008, 0.313790, -8.744073, 0.904538, -2.106557, -0.392860, 26.859604, 135.623520, -235.323166
1715797971.654229, -0.188843, 0.090680, -6.234351, 0.673900, -1.695127, -0.655615, 27.352051, 135.960876, -235.749069
1715797971.687557, -0.988057, 0.467767, -4.525939, 0.845620, -0.160115, -1.359317, 27.702454, 136.645767, -236.468933
1715797971.720881, 0.829741, 0.326360, -4.362086, 1.189429, 0.100837, -1.584015, 26.951096, 137.932877, -237.106262
1715797971.754290, 1.763479, -0.652121, -2.791639, 1.159886, -1.217170, -0.984470, 26.667755, 139.268463, -238.239868
1715797971.787557, -0.510264, -1.953669, -1.148618, 0.810837, -1.750613, -0.532686, 27.259720, 139.572296, -238.495895
1715797971.820891, -1.610849, -2.204611, -0.902764, 0.601095, -1.257310, -0.589438, 27.237488, 140.205734, -240.039810
1715797971.854239, -1.856554, -2.287211, -1.392827, 0.827266, -0.702624, -0.719083, 27.728607, 140.754852, -240.552704
1715797971.887616, -1.361702, -2.825757, -0.475698, 0.825318, -0.556684, -0.492806, 27.834808, 141.082794, -240.934494
1715797971.920856, -1.440412, -2.999336, 0.448913, 0.373774, -0.184542, -0.067383, 27.709366, 141.606461, -241.241226
1715797971.954328, -1.563713, -2.454655, 0.180613, 0.032518, 0.073134, 0.218709, 27.563126, 141.306564, -241.607315
1715797971.986659, -1.910274, -2.684499, -0.202909, -0.218737, 0.492929, 0.482127, 27.623459, 141.427765, -241.583511
1715797972.020932, -2.737620, -2.649633, -0.741903, -0.176292, 0.776532, 0.740512, 27.843674, 140.977631, -241.235413
1715797972.054224, -3.017742, -1.773206, -0.944213, -0.333832, 0.951390, 0.711265, 27.794296, 140.555130, -240.873260
1715797972.087531, -1.871667, -1.330578, -1.991826, 0.005691, 1.109393, 0.636304, 27.933365, 140.470673, -240.390320
1715797972.120880, -0.285060, -2.063503, -0.556502, 0.244360, 1.690215, 0.341793, 27.453888, 140.593216, -239.989136
1715797972.154232, 1.071854, -0.997335, -0.937031, -0.407312, 1.532567, 0.440417, 26.500259, 140.301849, -239.191711
1715797972.187550, 0.860416, -1.678784, -2.737021, -0.738497, 1.349413, 0.492881, 26.293488, 139.900070, -238.465942
1715797972.220997, 0.565780, -1.341950, -3.959112, -0.815361, 0.880672, 0.293559, 25.925095, 139.612595, -237.961929
1715797972.254234, 0.668880, -0.205901, -5.422418, -1.518976, 1.275826, 0.142313, 25.523834, 139.223053, -236.971024
1715797972.287640, -0.383222, -0.237774, -8.428188, -1.431541, 1.409795, -0.596128, 24.052582, 138.517288, -236.021210
1715797972.320921, 1.134103, 1.657236, -10.977564, -1.826608, -0.533372, -0.442189, 23.706039, 137.426086, -235.447784
1715797972.354229, 0.288801, 3.257760, -13.545645, -1.819946, 1.512512, -0.630987, 23.348099, 136.908478, -235.196777
1715797972.387641, -1.045518, 3.460519, -17.884088, -1.770674, -0.106103, -0.622256, 22.172424, 135.684631, -234.190475
1715797972.420930, 0.216226, 3.619883, -18.341680, -1.678729, -0.022506, -0.262383, 21.982773, 134.437103, -233.935242
1715797972.454278, -0.781707, 2.211943, -20.722713, -0.474683, 1.375947, -0.601265, 21.284302, 133.968643, -233.594406
1715797972.487167, -0.754622, 2.467973, -17.548750, -0.382627, 1.646688, -0.971374, 20.011581, 133.542603, -233.447556
1715797972.520894, 1.446996, 1.735198, -17.920300, -0.387007, 0.585081, -0.942474, 18.963882, 133.156921, -233.427780
1715797972.554332, 2.484433, 1.984195, -16.704944, -0.676124, -0.069620, -0.538616, 18.968262, 132.872101, -233.246613
1715797972.587569, 1.087865, 1.519271, -18.839674, -0.558485, 0.851438, -0.766970, 18.578888, 132.273956, -233.232971
1715797972.620884, 1.962946, 0.978780, -20.264672, -0.152790, 1.146473, -0.625385, 17.558517, 131.693619, -233.153809
1715797972.654444, 2.616414, 0.676063, -19.909732, 0.375630, 0.993249, 0.132668, 16.693924, 132.132324, -233.055481
1715797972.687601, 1.425149, 1.203685, -18.910751, 0.523755, -0.220433, 1.110244, 17.091049, 132.635132, -233.375809
1715797972.720911, -0.119112, 1.818396, -18.596512, 0.384589, -0.754750, 1.154055, 17.253021, 133.094574, -233.289474
1715797972.754347, 0.297031, 2.524087, -20.348918, 0.446278, -0.148248, 0.884364, 17.674667, 133.531876, -233.200806
1715797972.787575, 1.411831, 2.792986, -18.936190, 0.557027, 0.027816, 0.704960, 18.118393, 133.822708, -233.413849
1715797972.820887, 1.799841, 2.666991, -18.375647, 0.735610, 0.082379, 0.690587, 18.373306, 134.477493, -233.193222
1715797972.854261, 4.065654, 2.320730, -17.003919, 1.109700, -0.635517, 1.257445, 19.070557, 135.448730, -233.249939
1715797972.886991, 1.441758, 2.206406, -11.077522, 0.965539, -1.818397, 1.470407, 19.697205, 135.730057, -233.488602
1715797972.920311, 0.863110, 1.045219, -9.615413, 0.081343, -2.250256, 0.657072, 22.308441, 135.860596, -233.649643
1715797972.954271, 1.160589, 0.363769, -11.185261, 0.514842, -1.780054, 0.273121, 23.993011, 135.883118, -234.059860
1715797972.987566, 0.830189, 0.002993, -9.909451, 0.640942, -1.182800, -0.027142, 24.770462, 136.122910, -234.838409
1715797973.020931, 0.659752, -0.382923, -8.189068, 0.576793, -2.259480, -0.232973, 25.601486, 136.270935, -235.091797
1715797973.054244, 0.396839, -0.207098, -6.181829, 0.259080, -1.835300, -0.407972, 26.767426, 136.532913, -236.120667
1715797973.087624, -1.391630, -0.552612, -6.206669, 0.546193, -1.205681, -0.928371, 27.514954, 137.076385, -236.968033
1715797973.120900, -0.279373, -0.446968, -4.045902, 0.840068, -0.404720, -1.217046, 27.547943, 137.568237, -237.297684
1715797973.154253, 0.604536, -0.839916, -2.385074, 0.619208, -0.525675, -0.932167, 27.375992, 138.725800, -237.671341
1715797973.187681, -0.545728, -0.755820, -2.015170, 0.096256, -1.050290, -0.588278, 27.267944, 138.887802, -238.215637
1715797973.220895, -0.963965, -1.039832, -2.958784, 0.043242, -1.230020, -0.691396, 27.739670, 139.128967, -238.815384
1715797973.254337, -0.813580, -1.158195, -3.082385, 0.376787, -0.894018, -0.581988, 27.900528, 139.229599, -239.084595
1715797973.287646, -1.146523, -1.664718, -1.983297, 0.726970, -0.083516, -0.487296, 27.749222, 140.040527, -239.708481
1715797973.320906, -1.477971, -1.878999, -0.363769, 0.724659, -0.208773, -0.190251, 27.582016, 140.593781, -240.330887
1715797973.354319, -0.999579, -1.896208, 1.373972, 0.177446, -0.118471, 0.185928, 27.643265, 140.492264, -240.828979
1715797973.387669, -1.301847, -2.650381, 1.356315, -0.339696, 0.360581, 0.689566, 27.984634, 140.415939, -240.444336
1715797973.420953, -2.910152, -1.806724, -0.355389, -0.940815, 0.258635, 0.791665, 28.420135, 139.551437, -240.210495
1715797973.454234, -2.860772, -1.647959, -2.218377, -0.819357, 0.339451, 0.612862, 28.292572, 139.389343, -239.567978
1715797973.487577, -1.466449, -1.494880, -2.759317, -0.563289, 0.711463, 0.679060, 28.458618, 138.661743, -239.086075
1715797973.520979, -0.961721, -1.368436, -2.999635, -0.635174, 1.412635, 0.908760, 28.420883, 138.211334, -237.991974
1715797973.554252, -1.121085, -0.990900, -4.665102, -0.717122, 1.537021, 0.935730, 27.917816, 137.355179, -237.071091
1715797973.587601, -1.483657, -1.801637, -5.815516, -0.434216, 1.225972, 0.688445, 27.502380, 136.985916, -236.797791
1715797973.620988, -0.236577, 0.292990, -5.635352, -0.863690, 0.865351, 0.558209, 26.956955, 136.680664, -236.071243
1715797973.654312, -0.141707, -0.323367, -7.380875, -1.145017, 1.674028, 0.099073, 26.003738, 135.942230, -234.904984
1715797973.687665, 0.495450, 1.843236, -9.128193, -1.417171, 1.217499, -0.256650, 25.564209, 135.688583, -234.378632
1715797973.720921, 1.189020, 1.067215, -11.979687, -1.546799, 1.378824, -0.417181, 24.343704, 134.880386, -233.479736
1715797973.754251, 0.886453, 1.355717, -12.905645, -0.830973, 0.507155, -0.378821, 23.668350, 134.086624, -232.841843
1715797973.787605, -0.011223, 3.376273, -12.529007, -1.027757, 0.093186, -0.384139, 22.661972, 133.564682, -232.724579
1715797973.821001, -0.637606, 3.111864, -13.878439, -0.895371, 1.151686, -0.758987, 22.582565, 133.268417, -232.809662
1715797973.854252, -0.576703, 4.131045, -15.967829, -0.621231, 0.229967, -0.752583, 21.271790, 132.796494, -232.651016
1715797973.887592, -0.351798, 3.578733, -15.453225, -0.698858, 0.078796, -0.814016, 21.137802, 132.231567, -232.975906
1715797973.920896, 0.304662, 3.723432, -17.657985, 0.079515, 0.281273, -0.631770, 20.879059, 131.760925, -232.760941
1715797973.954242, -1.008707, 5.234024, -15.504850, 0.061261, 1.207285, -0.465320, 19.896713, 131.791748, -233.020569
1715797973.987563, -0.851737, 4.587590, -16.960525, -0.591519, -0.653718, -0.746618, 19.649216, 131.528320, -232.807632
1715797974.020906, 2.372355, 2.903568, -17.283293, -0.665026, 1.007236, -0.694476, 19.437912, 131.504913, -232.901733
1715797974.054337, 1.816451, 1.788319, -22.710499, 0.104941, 0.049168, 0.021385, 18.800644, 130.832413, -232.847275
1715797974.087614, 1.458368, 1.699135, -19.274820, 0.778849, 0.149164, 0.666013, 19.074539, 131.748093, -232.780136
1715797974.120920, 0.247052, 2.223016, -18.027291, 0.793103, 0.990008, 0.793713, 19.051682, 131.999588, -232.952454
1715797974.154234, -0.339827, 3.304298, -19.489400, 0.835882, 0.559862, 0.873689, 18.641861, 132.641159, -233.099411
1715797974.187683, 1.001524, 3.469049, -17.416620, 1.034328, 0.868056, 1.046466, 18.720596, 133.247742, -233.304169
1715797974.220908, 1.795352, 3.067721, -16.354941, 0.967819, 0.982012, 1.369761, 18.534363, 134.396149, -233.415710
1715797974.254321, 0.845602, 2.018761, -14.475194, 0.982745, -0.254847, 1.336679, 18.698746, 134.658035, -233.213898
1715797974.287575, 1.610550, 1.473930, -14.253281, 0.645330, -1.211576, 1.525713, 19.868149, 135.541229, -233.280533
1715797974.320765, 0.732027, 0.935085, -14.148235, 0.948011, -1.129802, 1.348203, 21.488770, 135.813629, -233.539597
1715797974.354296, 0.341024, 0.699107, -12.323854, 0.799820, -1.491356, 1.066391, 23.057846, 136.298981, -233.616379
1715797974.387251, -0.503680, -0.182109, -10.966341, 0.684182, -2.009447, 0.376040, 23.970169, 136.281158, -234.172577
1715797974.420931, 0.693720, -0.876577, -9.743952, 0.572420, -1.470845, 0.117413, 25.734787, 136.640152, -234.961349
1715797974.454262, 1.121534, -0.391153, -7.961618, 0.236955, -1.208014, 0.065979, 26.438217, 136.405869, -235.346954
1715797974.487567, -1.334917, -0.078560, -4.965724, -0.033158, -0.716879, -0.190986, 26.931030, 136.185150, -235.494415
1715797974.520930, -2.211793, 0.038756, -3.592949, -0.287111, -0.468345, -1.334304, 27.023422, 136.648819, -235.595718
1715797974.554294, 0.571316, 0.110582, -3.804835, -0.445882, -0.874672, -1.221911, 26.513077, 136.584702, -235.734955
1715797974.587597, 0.437091, -1.163582, -4.569184, 0.312171, -1.322180, -0.654393, 26.953094, 136.820236, -235.783768
1715797974.620933, -1.286434, -0.971298, -3.292027, 0.769184, -0.697903, -1.023571, 27.450882, 137.387817, -236.555023
1715797974.654264, -0.560991, -1.184980, -2.341978, 0.866525, -0.432431, -1.147335, 27.356873, 138.192413, -237.283188
1715797974.687619, 0.601693, -1.851915, -1.636886, 0.786147, -0.352207, -0.884649, 27.159836, 139.060806, -237.856110
1715797974.720937, 0.432153, -2.487426, -1.387440, 0.855305, -0.321531, -0.391367, 27.155151, 139.590759, -238.093674
1715797974.754316, -0.081552, -2.384774, -0.053271, 0.627367, 0.232005, -0.081209, 26.800339, 140.176315, -238.621368
1715797974.787620, -0.756119, -3.204190, 0.163105, 0.179386, 0.265938, 0.079151, 26.426346, 140.238144, -239.123917
1715797974.821041, -0.778564, -2.798373, 0.364368, -0.258419, 0.159002, 0.284691, 26.415619, 140.167572, -238.827576
1715797974.854264, -0.447566, -1.899200, 0.417938, -0.785706, 0.223980, 0.337491, 26.490952, 140.204391, -238.506409
1715797974.887685, 0.262913, -1.482909, -1.438466, -1.081835, 0.051827, 0.485966, 26.707153, 139.340439, -237.943573
1715797974.920888, 0.371849, -0.893486, -2.976890, -0.903897, 0.318727, 0.668408, 26.480179, 138.994186, -237.552170
1715797974.954288, 1.358859, -0.314389, -4.240879, -0.807110, 1.367760, 1.018333, 27.114838, 138.421036, -236.978287
1715797974.987600, 0.035464, -1.073650, -5.850531, -0.475073, 1.899547, 1.003771, 26.101105, 137.629654, -236.050140
1715797975.020929, -0.618452, 0.519991, -7.552359, -1.016656, 2.019598, 0.782289, 25.287155, 137.060944, -234.749405
1715797975.054274, -2.298134, -1.492037, -11.549928, -0.727530, 1.411423, 0.101343, 24.874100, 136.357468, -234.327896
1715797975.087682, -0.490961, 0.138864, -9.972598, -0.555609, 1.807343, -0.643672, 23.560257, 136.250107, -233.944839
1715797975.120941, 2.583044, -0.018405, -11.973851, -0.686879, 3.383969, -0.912889, 20.873962, 136.163391, -233.198853
1715797975.154366, 2.898031, 1.164779, -13.622708, -0.003975, 0.759304, -0.731508, 19.927032, 136.214325, -233.000565
1715797975.187687, 2.758719, 2.949208, -11.473164, -1.007050, -1.580557, -0.393956, 19.266144, 135.924484, -233.515427
1715797975.220934, 1.711854, 3.093907, -13.551630, -1.448085, -0.839924, -0.479448, 19.897461, 134.659973, -232.744659
1715797975.254271, 0.432153, 3.739893, -15.124770, -1.100511, -1.311712, -0.371423, 20.182922, 133.752075, -233.179520
1715797975.287678, 0.018106, 4.099322, -14.146290, -1.121147, 0.940925, -0.803635, 20.258881, 133.507416, -233.008026
1715797975.320964, 0.424522, 3.423259, -18.431163, -0.729536, 0.658216, -1.073985, 18.926208, 132.405762, -232.876450
1715797975.354273, 0.812233, 2.985121, -17.492486, -0.278553, -0.448587, -0.075579, 19.064850, 132.127838, -233.061661
1715797975.387605, -2.136526, 2.461090, -16.492907, -0.315184, 0.454223, -0.882993, 19.159393, 131.904007, -233.154343
1715797975.420932, 1.126472, 1.767669, -17.928081, -0.263893, 0.595425, -0.765562, 18.822861, 131.729111, -233.131577
1715797975.454428, 2.880075, 0.854431, -20.022260, 0.038526, 0.205730, 0.241811, 18.304520, 131.522583, -233.252914
1715797975.487581, 2.791190, 1.018882, -20.087202, 0.289677, -0.075161, 0.878796, 18.222870, 131.474396, -233.226852
1715797975.520934, 1.418864, 1.694646, -20.507534, 0.500747, -0.387110, 1.220449, 18.632324, 131.942596, -232.795975
1715797975.554320, 0.192733, 2.199374, -21.192875, 0.968198, 0.307657, 1.037742, 19.139221, 132.556000, -233.043594
1715797975.587644, 1.196353, 2.451064, -19.697247, 1.315065, 0.633294, 0.765445, 18.994446, 133.687256, -232.992096
1715797975.620915, 1.973570, 2.531569, -17.870920, 1.081322, 0.057007, 0.940478, 18.874939, 134.059448, -233.045731
1715797975.654277, 2.697068, 2.488324, -15.047857, 1.256490, -0.313383, 1.188946, 19.379227, 135.174637, -233.153152
1715797975.687611, 1.604714, 2.268955, -12.399271, 0.636729, -1.448111, 1.274204, 20.715912, 136.087280, -233.354294
1715797975.720928, 0.635810, 1.578228, -12.162395, 0.557240, -2.016972, 0.988405, 22.097000, 136.139053, -233.405090
1715797975.754283, 1.650054, 0.981473, -10.809820, 0.741591, -1.405808, 0.819503, 23.579391, 136.105713, -233.781464
1715797975.787613, 0.722899, 0.574010, -10.547207, 1.083386, -1.415206, 0.438042, 25.243698, 136.333511, -234.666550
1715797975.820928, 1.116745, 0.166696, -8.469339, 1.004439, -1.785451, 0.277263, 26.661789, 137.099609, -235.541489
1715797975.854398, 1.030105, 0.079458, -7.261614, 0.885730, -1.817284, 0.225561, 27.182083, 137.196442, -235.787140
1715797975.887615, -1.024718, -0.194679, -4.858284, 0.754394, -1.117398, -0.271597, 28.156433, 137.476913, -237.184982
1715797975.920952, -0.228497, -0.200514, -3.122937, 0.615645, -0.401724, -0.520272, 28.535400, 138.013580, -238.030151
1715797975.954256, 0.448165, -1.023970, -2.472911, 0.449150, -0.451231, -0.159075, 28.476913, 138.445221, -237.939209
1715797975.987680, -2.281375, -1.452981, -2.441936, 0.508820, -1.046570, -0.102830, 28.768661, 138.288040, -238.959869
1715797976.020956, -2.951901, -1.537227, -1.552041, 0.515297, -1.457212, -0.966194, 28.730865, 138.986191, -239.721588
1715797976.054362, -1.639430, -1.968632, -1.581969, 0.779617, -1.177085, -1.191272, 29.235550, 139.138885, -240.211700
1715797976.087615, -0.118214, -2.368015, 0.311246, 0.939796, -0.365582, -0.963048, 29.021271, 140.032410, -241.334320
1715797976.120942, -0.261267, -2.498349, 0.685490, 0.482770, -0.160874, -0.483223, 28.527298, 140.614517, -241.671555
1715797976.154323, 0.063746, -3.070264, 0.988356, 0.139376, 0.246788, 0.024383, 28.893768, 141.051468, -241.741547
1715797976.187614, -1.121983, -3.466205, 0.410905, -0.159229, 0.280366, 0.424364, 28.652832, 140.933014, -241.441101
1715797976.221035, -1.854160, -2.649783, -0.434548, -0.365066, 0.362710, 0.411240, 28.750168, 140.889374, -241.440643
1715797976.254367, -2.052579, -2.477849, -0.675165, -0.441074, 0.269155, 0.065158, 28.579575, 140.694275, -241.086380
1715797976.287584, -0.272939, -1.199495, -0.990751, -1.005272, 0.651780, -0.144123, 28.620499, 140.193100, -240.815933
1715797976.320953, 1.263839, -1.929727, -2.904167, -0.902758, 0.798625, 0.417023, 28.097290, 140.250488, -239.852127
1715797976.354347, 0.269497, -1.154753, -3.498826, -0.593046, 1.930434, 0.545386, 27.968338, 139.510696, -238.411743
1715797976.387688, -0.883011, -1.386841, -3.965247, -0.532807, 2.575551, 0.231578, 27.520096, 139.134308, -237.920746
1715797976.420922, -0.803404, -1.143082, -5.364059, -0.844719, 1.817645, -0.182334, 25.730042, 138.825256, -237.017776
1715797976.454363, -0.818967, -0.064793, -6.942586, -1.354053, 1.214183, -0.625299, 24.949951, 138.779785, -235.936768
1715797976.487689, -0.195876, 0.478242, -9.780912, -1.217419, 1.205487, -1.331364, 23.074097, 138.265457, -235.273422
1715797976.521013, 2.460940, 0.932392, -12.118701, -1.280905, 1.352924, -1.588743, 21.823792, 138.296875, -234.669525
1715797976.554273, 2.025195, 1.682525, -15.292215, -0.988362, -0.085270, -1.305055, 20.527893, 137.326477, -234.257156
1715797976.587506, 0.017807, 2.405125, -15.120281, -1.374994, -0.401003, -1.368231, 19.570328, 136.747162, -233.911102
1715797976.620739, -0.328754, 3.164835, -19.139547, -1.129348, 0.139388, -1.639475, 19.569122, 136.299942, -233.872925
1715797976.654298, -0.295684, 2.805107, -18.176480, -0.760805, 0.181984, -1.766306, 18.581131, 135.526077, -233.940750
1715797976.687625, 1.636138, 2.594716, -18.218827, -0.999343, -0.511377, -1.064815, 17.804214, 134.627762, -233.681381
1715797976.720965, 0.824952, 2.086846, -19.001432, -0.720939, -0.176516, -0.662489, 18.012909, 134.218201, -233.591125
1715797976.754288, 1.549198, 1.226430, -17.715596, -1.050195, 0.332726, -0.633691, 17.751831, 133.536407, -233.638992
1715797976.787725, 2.786851, -0.182708, -21.686230, -0.628797, 0.465185, -0.177391, 16.718170, 132.710709, -233.250000
1715797976.820997, 2.680009, -0.584634, -21.932982, 0.510068, 0.544168, 0.391217, 16.761795, 132.538849, -233.404907
1715797976.854397, 1.326537, -0.362871, -18.883966, 0.633925, 0.245086, 0.925123, 16.740280, 132.817123, -233.242737
1715797976.887598, 0.637307, 0.268300, -19.228432, 0.583668, 0.020050, 1.116857, 16.794937, 133.403107, -233.751541
1715797976.920967, 0.858172, 1.047763, -20.360740, 0.884491, 0.263066, 1.206162, 17.454758, 134.829086, -233.741562
1715797976.954285, 0.450409, 1.972074, -17.504008, 0.700351, 0.158237, 1.202794, 17.519043, 134.922104, -233.693466
1715797976.987625, 1.385195, 1.987636, -18.421586, 1.035357, 0.077091, 1.125804, 18.289963, 135.795731, -234.145798
1715797977.021072, 1.959804, 1.934665, -14.848091, 0.840770, 0.133325, 1.093551, 18.351227, 137.025436, -233.842422
1715797977.054295, 2.493860, 1.425747, -15.046660, 0.610062, -0.813874, 1.132019, 19.402786, 137.186584, -233.677536
1715797977.087706, 2.733729, 1.434576, -13.750499, 1.032786, -1.775763, 1.510350, 20.435455, 137.342422, -233.930832
1715797977.120966, 0.611569, 1.388637, -11.744607, 1.054898, -1.852450, 1.092708, 22.444794, 137.679398, -234.603745
1715797977.154409, -0.045639, 0.498592, -7.967155, 0.768140, -1.563338, 0.530398, 24.642715, 138.096924, -235.461594
1715797977.187633, -0.765396, 0.727388, -7.605630, 0.188234, -2.142619, -0.130503, 25.039978, 138.089706, -235.604401
1715797977.220949, -0.035913, 0.001347, -4.894347, 0.010843, -1.319136, -0.499019, 26.000198, 138.104492, -236.694138
1715797977.254287, 0.311695, -0.184354, -2.956839, -0.219247, -0.170073, -0.509651, 26.475876, 138.394028, -236.538742
1715797977.287630, -1.571195, -0.828992, -3.761889, 0.222683, -0.592758, -0.854425, 26.612701, 138.368607, -236.956024
1715797977.320975, -1.255459, -1.393276, -2.689437, 0.381957, -0.858680, -1.226561, 26.489594, 138.526520, -237.166870
1715797977.354280, 0.089783, -2.018611, -2.063203, 0.598156, -0.762696, -1.008399, 26.632538, 139.220551, -237.335739
1715797977.387637, -0.832733, -1.663671, -0.790535, 0.491184, -0.769451, -0.616065, 26.778488, 140.069351, -238.150864
1715797977.420946, -1.307234, -2.401534, -0.545130, 0.402632, -0.433792, -0.680589, 26.688843, 140.333313, -238.498123
1715797977.454386, -1.197101, -3.079392, -0.564134, 0.437029, -0.120246, -0.681506, 26.361618, 140.806992, -239.097778
1715797977.487618, -0.246603, -3.518878, 0.081852, 0.386259, -0.146421, -0.278778, 26.049911, 140.936966, -239.100662
1715797977.521015, -0.669628, -3.670610, 0.151583, 0.086352, 0.066118, 0.150003, 26.068954, 141.108856, -239.174057
1715797977.554345, -0.914735, -3.414580, 0.483479, -0.251354, 0.297255, 0.268078, 25.789795, 141.050980, -239.115326
1715797977.587640, -0.248398, -2.395099, -1.070208, -0.700620, 0.315929, 0.435183, 25.863113, 140.586166, -238.733459
1715797977.620963, 0.129736, -2.297985, -2.773683, -0.595160, 0.384471, 0.675933, 26.023438, 140.011902, -238.177582
1715797977.654302, 0.588824, -1.205032, -3.224241, -0.424068, 0.863138, 0.766926, 26.409760, 139.794083, -238.178833
1715797977.687646, 1.145476, -0.986860, -3.462315, -0.377987, 1.654946, 0.895180, 25.847916, 139.314407, -237.386795
1715797977.720971, 0.083498, -0.650175, -4.034679, -0.256080, 2.540349, 0.903517, 24.827042, 139.050446, -236.321320
1715797977.754381, -1.025466, 0.100407, -5.628319, -0.586518, 1.374840, 0.659922, 24.374847, 138.958145, -235.901932
1715797977.787601, -1.187823, 0.002095, -7.318476, -0.605326, 0.422790, 0.248410, 23.844681, 138.430847, -235.414825
1715797977.821036, 0.041899, 0.687585, -7.728184, -1.332531, 1.049392, -0.511180, 23.236603, 137.985428, -234.925522
1715797977.854278, 0.799364, 1.468543, -10.455179, -1.336154, 1.929973, -0.981924, 22.677139, 137.804871, -234.474182
1715797977.887715, 1.293767, 2.413206, -12.144588, -1.394053, 1.504452, -1.346285, 20.639160, 137.143539, -233.686508
1715797977.920944, 2.288258, 3.292626, -15.263634, -1.668819, 0.385987, -0.994401, 19.402542, 136.185135, -233.136078
1715797977.954275, 1.199196, 3.435530, -17.318907, -1.238159, 0.153749, -1.285841, 18.535828, 135.139389, -232.998672
1715797977.987700, 1.760636, 4.187758, -17.985841, -1.152634, -0.739966, -0.765726, 18.307632, 134.416992, -232.864548
1715797978.020975, -0.757466, 4.841824, -18.122161, -1.137487, 0.538193, -1.758234, 17.851547, 133.287323, -232.637253
1715797978.054298, 3.317765, 3.093608, -18.691832, -1.083003, -0.245639, -1.032908, 17.312698, 132.398254, -232.882690
1715797978.087611, 2.179472, 2.149395, -19.172318, -0.516713, -0.345470, -0.528832, 17.479874, 131.868378, -232.580627
1715797978.121007, 1.289727, 2.079813, -17.435474, 0.108965, -0.140925, -0.042108, 17.437912, 131.338867, -232.846146
1715797978.154419, 0.008679, 1.186925, -18.743756, -0.302590, 0.388718, -0.158002, 17.779312, 131.274658, -232.996231
1715797978.187740, 1.854608, 0.743100, -21.422568, 0.581520, 0.815687, 0.232369, 17.036911, 131.395981, -233.074112
1715797978.220975, 1.233912, 1.661426, -19.892673, 0.968238, 0.489268, 0.778826, 16.723801, 131.892761, -232.954727
1715797978.254278, 1.303044, 1.882142, -19.944598, 0.874149, 0.358616, 0.988103, 16.782028, 132.657364, -232.954086
1715797978.287901, 2.389862, 2.786402, -20.380043, 1.229847, 0.870594, 0.974471, 16.336975, 134.004715, -232.751877
1715797978.320994, 3.084630, 3.304298, -19.005173, 1.068436, 0.083557, 1.390603, 16.592560, 134.563629, -233.074951
1715797978.354356, 2.539051, 3.405303, -16.690878, 1.292075, -0.662475, 1.549889, 17.531158, 135.775543, -233.052750
1715797978.387726, 2.373402, 2.982577, -14.658500, 0.884581, -0.932642, 1.548481, 18.848267, 136.455963, -233.488312
1715797978.421057, 0.347758, 2.283470, -15.241338, 1.460169, -1.632498, 1.279740, 19.709106, 136.845169, -233.429779
1715797978.454324, -0.706888, 0.903362, -10.287585, 1.289200, -1.377942, 0.655320, 21.236954, 137.728394, -234.393738
1715797978.487595, -0.794875, 0.295385, -10.822540, 1.018315, -1.642635, 0.110492, 22.704407, 138.262146, -234.738388
1715797978.520910, -0.065841, -0.021249, -9.521890, 1.091839, -1.477564, -0.252696, 23.909500, 139.091324, -235.432144
1715797978.553430, 0.558448, 0.622642, -6.643610, 1.031962, -1.421786, -0.387673, 24.433044, 139.284454, -235.896881
1715797978.587376, -0.817620, 0.492757, -3.993828, 0.689387, -0.350721, -1.138169, 24.890610, 139.969040, -236.914032
1715797978.620583, 0.047136, 0.247351, -3.653103, 0.807959, -0.534653, -1.479390, 24.494324, 140.701935, -237.702637
1715797978.653849, 2.257134, -0.719907, -1.852663, 0.746900, -0.840547, -1.044175, 24.184799, 140.917282, -237.607300
1715797978.687755, 1.034145, -1.584812, -1.341950, 0.792930, -0.682503, -0.516898, 24.475723, 141.581528, -238.599426
1715797978.720991, -0.353743, -1.824531, -0.936432, 0.789628, -0.636616, -0.534956, 24.452667, 142.218475, -239.509140
1715797978.754309, -0.538695, -2.491915, -0.402824, 0.534577, -0.639757, -0.631604, 24.214859, 142.932541, -240.142868
1715797978.787704, -0.374693, -2.558953, -0.759411, 0.604083, -0.309913, -0.576228, 24.071960, 142.934937, -240.534546
1715797978.820969, -0.117466, -3.553893, -0.228497, 0.411551, -0.190172, -0.355125, 23.980118, 143.345856, -240.470215
1715797978.854369, 0.273687, -3.853318, -0.028581, 0.311161, 0.179119, 0.024576, 23.855911, 143.634369, -241.033737
1715797978.887649, -0.115520, -3.927089, 0.845452, -0.129140, 0.711510, 0.580855, 24.024124, 143.650406, -241.155182
1715797978.920983, -1.472434, -3.690961, 0.683245, -0.565132, 0.807241, 0.641962, 23.928787, 143.096832, -240.815659
1715797978.954440, -2.238130, -2.154632, -0.041300, -0.963554, 0.963426, 0.089383, 23.925354, 142.558716, -240.141296
1715797978.987686, 1.037288, -2.466177, -1.085471, -0.886580, 0.911911, 0.023435, 23.388885, 142.488419, -239.685760
1715797979.020966, 2.182016, -1.373374, -1.373823, -1.396598, -0.131308, 0.948505, 23.587753, 141.744110, -238.818237
1715797979.054323, 1.214160, -1.260547, -2.725499, -1.329622, 0.885876, 1.082151, 23.674255, 140.900146, -237.792206
1715797979.087678, 0.956035, -0.485873, -4.761618, -1.075399, 1.741953, 0.615186, 23.341980, 140.231567, -236.500916
1715797979.120994, 1.515979, -0.522385, -6.663811, -0.858486, 1.334138, 0.408066, 22.870575, 139.477890, -236.120514
1715797979.154343, 1.896657, 0.351199, -7.368754, -1.050888, 0.647310, 0.296044, 22.359161, 139.199585, -235.072968
1715797979.187673, 1.550545, 0.880767, -9.319729, -1.555737, 0.863257, 0.003297, 21.592926, 138.533188, -234.523239
1715797979.220995, 0.976086, 1.406444, -11.746253, -1.460531, 1.444331, -0.847868, 20.948242, 138.081497, -234.108994
1715797979.254330, 2.128146, 2.270601, -13.557317, -1.868827, -0.168702, -0.630733, 19.589020, 137.289764, -233.690796
1715797979.287625, 0.958279, 2.454805, -15.708207, -1.744491, 0.859490, -0.746775, 18.895920, 135.812149, -233.119232
1715797979.321040, 0.250344, 2.787749, -18.028638, -1.151487, 0.091687, -0.836246, 18.031967, 134.963165, -232.829330
1715797979.354374, -0.033369, 3.651457, -17.628208, -1.041129, -0.410186, -0.895881, 17.739532, 134.594666, -232.774475
1715797979.387773, -0.257526, 3.199252, -18.689737, -0.543202, 0.074048, -1.300948, 17.293030, 133.657852, -232.868195
1715797979.420961, 1.433977, 1.509694, -17.882891, 0.016756, -0.627962, -0.190348, 17.538788, 133.436615, -232.699371
1715797979.454412, 0.764199, 2.703353, -16.619949, 0.100424, 1.134807, -0.818529, 17.780411, 132.979385, -233.075485
1715797979.487714, 1.299154, 1.083376, -17.152360, -0.340098, 0.736948, -0.981205, 16.473969, 132.884415, -233.109070
1715797979.521120, 2.736124, 0.634314, -20.344280, -0.475429, 0.234379, -0.192772, 15.906235, 132.476074, -232.989136
1715797979.554339, 2.617311, 0.963517, -21.000291, 0.469989, 0.874784, 0.285499, 15.971375, 132.275604, -233.041565
1715797979.587703, 2.981829, 1.484704, -18.660707, 0.199527, 0.431811, 0.860414, 15.304901, 132.801254, -232.966492
1715797979.621006, 3.173365, 2.088791, -20.323181, -0.018345, -0.039055, 1.223779, 16.039032, 132.965027, -233.128113
1715797979.654334, 4.144962, 3.055301, -20.846613, 0.235672, 0.305559, 1.533338, 15.886017, 133.550232, -233.179886
1715797979.687634, 2.106598, 3.716699, -21.075110, 0.728104, -0.457428, 1.475090, 16.318771, 133.867844, -233.038284
1715797979.721063, 2.391807, 3.696647, -16.892290, 1.183244, -0.316874, 0.947155, 17.033600, 134.782089, -232.950882
1715797979.754356, 2.230199, 2.852991, -14.666730, 0.929203, -1.183669, 1.164155, 18.000961, 135.903183, -233.031509
1715797979.787716, 1.444003, 2.288707, -12.920908, 0.789392, -2.167191, 1.070428, 18.953049, 136.023483, -232.898468
1715797979.820972, 0.719458, 1.600673, -10.588806, 0.400610, -1.845952, 0.720377, 20.989487, 136.511749, -233.381516
1715797979.854331, -0.752079, 1.096245, -11.909058, 0.826986, -1.793046, -0.057064, 22.680496, 136.730911, -234.042831
1715797979.887774, 0.963517, 0.433650, -9.292944, 0.883792, -2.228673, -0.245309, 23.356140, 136.905457, -233.997620
1715797979.920979, 0.729932, 0.960374, -7.053917, 0.672484, -1.390950, -0.520623, 24.869370, 137.287094, -235.230865
1715797979.954301, -0.016759, 0.704344, -3.655497, 0.231562, 0.206455, -1.094589, 24.673187, 138.016647, -235.236282
1715797979.987668, 0.948253, -0.066140, -4.476259, 0.279567, 0.193414, -1.186499, 24.065338, 138.417465, -235.451065
1715797980.020958, 2.198925, -1.564910, -4.110395, 1.156807, -0.043557, -0.638507, 23.731674, 138.712540, -235.486893
1715797980.054332, 1.449539, -0.298228, 0.853383, 1.671863, 1.185189, -0.225687, 23.391037, 139.416733, -235.999512
1715797980.087648, -1.480664, -0.859219, 1.213262, 0.606652, 0.750765, -0.371055, 22.644318, 140.190994, -236.489334
1715797980.121127, -1.467197, -2.100912, -0.456095, 0.028530, -1.169597, -0.574641, 22.481079, 140.347900, -236.648743
1715797980.154346, 0.305560, -2.779219, -0.105495, 0.191669, -1.367686, -0.471675, 23.053329, 140.665695, -236.885910
1715797980.187820, 0.327108, -3.232920, -0.354043, 0.101278, -0.441259, -0.122403, 23.341919, 140.620422, -237.347519
1715797980.221050, 0.454898, -3.236362, -0.817620, 0.275894, 0.439217, 0.173134, 23.276337, 140.868652, -237.515640
1715797980.253606, -0.237774, -3.082984, -0.673220, 0.363971, 0.405091, 0.378479, 23.482376, 141.133942, -237.478897
1715797980.287671, -0.183456, -2.049137, 0.255431, -0.532490, 0.252164, 0.507589, 23.196960, 141.101883, -237.373688
1715797980.321031, 0.248249, -1.872864, -1.521066, -0.649476, -0.284294, 0.721514, 23.433823, 140.525101, -237.048050
1715797980.354442, 0.423026, -1.013645, -2.548328, -0.548031, -1.065809, 0.777909, 24.150909, 140.279739, -237.152405
1715797980.387677, 1.779640, -1.581969, -1.716343, -0.512831, 1.045690, 0.961036, 24.871735, 139.530167, -236.959335
1715797980.421007, 0.742352, -0.973991, -3.568707, -0.652597, 1.755442, 0.802447, 24.053497, 139.248642, -236.194168
1715797980.454340, 0.235979, -0.965911, -5.339668, -0.316114, 1.667269, 0.689129, 23.932922, 139.076492, -235.708557
1715797980.487668, -0.775422, -0.711976, -5.374833, -0.423031, 2.135761, 0.213315, 22.840942, 138.895645, -235.253983
1715797980.521003, -1.121384, -0.406266, -9.032275, -0.693784, 0.873082, -0.510131, 21.511322, 138.357544, -234.848373
1715797980.554389, -0.008380, 1.773206, -10.660183, -0.336493, 0.606755, -1.405063, 20.425369, 138.378220, -234.419739
1715797980.587676, 2.594417, 1.214309, -12.171822, -1.537048, 0.253634, -1.574906, 19.448410, 138.035782, -234.493225
1715797980.620992, 1.490391, 1.776797, -16.377387, -2.050984, 0.191857, -1.154954, 18.748917, 137.075302, -233.831375
1715797980.654466, 2.012775, 0.410755, -21.090223, -1.386666, -1.317345, -0.606750, 18.404755, 135.599045, -233.200409
1715797980.687711, 0.979977, 2.505532, -19.313426, -0.012639, -1.929162, 0.629880, 19.131882, 135.329468, -233.501038
1715797980.721005, -3.384054, 1.731606, -15.486744, -0.680068, 0.447310, -0.859782, 20.020462, 135.200012, -233.817490
1715797980.754347, -0.100257, 1.584513, -17.425149, -0.803725, 0.600832, -0.872422, 19.196991, 134.328217, -233.705734
1715797980.787739, 0.933140, 2.156577, -18.183213, 0.150493, 0.562731, -0.718766, 18.853256, 133.833954, -233.942596
1715797980.820982, 1.880047, 1.409586, -15.657929, -0.264049, 0.156832, -0.234724, 18.239212, 134.027710, -233.723495
1715797980.854349, 0.840664, 0.654365, -18.332402, -0.500824, 0.242279, -0.121584, 18.194870, 133.565582, -233.718552
1715797980.887795, 1.847426, 0.524330, -20.692337, 0.270375, 0.872702, 0.173737, 17.780685, 133.617142, -233.337128
1715797980.920997, 2.068590, 0.992546, -19.833716, 0.257542, 0.065685, 1.225280, 17.728790, 133.745621, -233.695084
1715797980.954329, 0.961272, 1.713500, -20.923078, 0.366175, 0.197103, 1.263888, 17.974609, 134.421097, -233.709183
1715797980.987683, 1.096395, 2.173935, -21.341764, 0.710720, 0.326689, 1.299297, 18.187698, 134.696152, -233.515488
1715797981.021084, 0.593014, 2.497452, -17.239299, 0.116812, -0.550204, 1.486068, 18.520020, 135.063675, -233.450790
1715797981.054355, 1.373972, 2.118868, -19.470097, 0.175882, -0.464846, 1.402347, 19.652679, 135.293472, -233.284180
1715797981.087753, 0.840365, 2.599504, -18.792388, 1.021074, -0.767199, 1.306058, 20.876404, 135.600800, -233.056503
1715797981.121038, 0.398635, 1.686565, -12.165687, 0.648495, -1.332151, 0.917928, 22.256866, 135.941025, -233.319153
1715797981.154383, 1.084873, 1.167622, -11.402385, 0.100995, -1.197638, 0.620705, 22.840622, 135.750977, -233.352798
1715797981.187687, -0.030825, 0.774524, -12.267590, 0.640705, -1.779835, 0.281249, 24.432098, 135.726868, -233.431046
1715797981.221117, 0.379481, 0.630274, -7.587375, 0.667255, -1.981647, -0.230291, 25.817337, 136.220810, -234.666595
1715797981.254394, 0.147992, 1.290624, -5.540931, 0.438635, -0.573627, -0.733980, 26.346222, 136.219574, -234.603714
1715797981.287759, 0.969801, 0.324265, -5.006126, 0.905176, -0.399451, -0.850365, 26.647736, 136.935791, -235.060669
1715797981.320990, 1.687912, -0.302567, -3.302652, 1.250018, -0.839790, -0.574185, 26.750641, 137.752213, -235.999878
1715797981.354455, 1.771410, -0.920870, -1.386841, 1.578468, -0.722136, -0.348278, 26.931763, 138.001556, -236.524750
1715797981.387762, 2.085350, -1.158494, -0.393098, 1.601188, -0.706893, -0.020428, 27.254044, 138.867004, -237.688934
1715797981.421019, 1.701080, -1.554286, 0.213682, 1.243188, -0.810702, 0.241766, 27.524399, 139.816345, -238.948212
1715797981.454321, 0.648829, -2.247108, -0.041150, 1.057807, -0.845686, 0.316740, 27.943176, 140.182816, -240.033737
1715797981.487763, -0.257377, -3.130868, 1.803283, 0.834290, 0.352988, 0.279188, 28.422165, 140.525909, -240.530121
1715797981.521003, -1.607706, -3.210325, 2.046743, 0.071999, 0.428775, 0.362604, 28.182205, 140.727600, -240.486649
1715797981.554353, -2.213739, -3.422661, 1.519271, -0.448247, 0.012155, 0.634297, 28.202393, 140.548233, -240.359894
1715797981.587754, -2.392705, -3.247585, 1.528548, -0.923687, 0.339112, 0.715513, 28.408539, 140.115753, -240.124908
1715797981.621019, -2.301875, -2.398840, 0.509366, -1.049974, 0.649580, 0.768469, 28.884430, 139.324173, -239.651810
1715797981.654401, -2.071733, -2.076371, -0.221164, -1.215551, 0.749060, 0.680064, 28.628601, 138.458633, -238.442963
1715797981.687335, -1.163432, -0.718410, -1.766771, -1.418857, 0.366489, 0.523042, 28.852737, 137.361191, -237.401413
1715797981.721015, -0.073622, -0.577452, -3.141941, -1.214065, 0.427572, 0.631366, 28.603348, 136.943512, -237.275681
1715797981.754325, 0.346860, -0.139911, -3.866187, -0.950346, 1.227767, 0.581758, 28.465775, 136.188370, -236.496628
1715797981.787694, -0.193930, 0.964265, -5.092617, -1.404311, 2.247126, 0.404659, 27.162384, 135.438248, -234.764236
1715797981.820997, -1.210119, -0.082001, -7.974038, -1.287919, 1.483864, 0.073773, 26.606812, 134.910461, -234.301712
1715797981.854351, -0.643292, 2.278233, -8.877999, -1.236609, 1.647575, -0.680412, 25.377808, 134.357529, -233.386047
1715797981.887693, 1.735198, 3.238607, -11.586440, -1.788243, 1.592356, -1.312716, 23.469421, 133.505890, -232.531815
1715797981.921026, 3.479822, 3.699939, -14.097209, -1.605700, 0.784967, -0.904653, 22.553040, 132.877335, -232.136383
1715797981.954391, 1.781735, 4.792743, -15.680225, -1.434147, 0.773993, -0.934163, 21.426712, 132.101105, -231.746887
1715797981.987704, 1.066766, 6.044162, -16.911443, -1.298340, -0.391283, -1.205988, 21.053009, 131.313629, -231.945297
1715797982.021057, 1.772906, 6.075736, -17.031902, -1.028166, 1.800553, -1.663864, 19.820282, 130.436691, -231.866104
1715797982.054491, 1.794005, 5.892430, -19.154062, -0.597175, 0.808138, -1.460002, 19.034546, 129.685410, -232.173874
1715797982.087669, 2.488174, 5.337274, -17.918504, 0.268588, -0.082890, -0.885068, 18.746689, 129.683899, -232.011856
1715797982.121031, 2.022651, 5.245397, -16.180164, 0.328997, 0.788384, -0.972269, 17.943726, 129.706482, -232.420258
1715797982.154332, 2.385373, 4.327968, -16.276531, -0.041307, 0.398556, -0.673880, 17.510529, 129.682114, -232.364868
1715797982.187696, 3.248183, 3.343203, -17.083976, 0.020405, 0.279200, -0.286546, 17.372284, 129.502823, -232.638153
1715797982.221084, 3.918410, 3.508703, -16.963517, -0.252409, 0.252351, 0.632038, 17.029816, 129.674942, -232.631210
1715797982.254309, 2.382530, 4.320187, -18.171841, -0.222354, 0.147376, 1.082659, 17.078766, 129.539581, -232.695297
1715797982.287594, 3.217059, 5.018247, -18.678963, -0.497579, -0.143165, 1.512471, 17.039810, 129.751785, -232.217194
1715797982.321006, 3.044676, 6.404938, -24.314016, 0.802454, -0.782334, 1.878748, 17.768723, 129.769363, -232.154572
1715797982.353935, 2.969708, 6.712593, -20.744860, 1.215202, 0.052585, 1.743729, 18.557648, 130.870285, -232.026337
1715797982.387789, 1.821090, 6.768707, -18.116924, 0.876908, 0.099380, 1.401940, 18.595139, 131.542709, -232.124847
1715797982.420515, 2.740762, 5.298219, -15.305233, 1.078335, -1.318018, 1.521368, 19.682358, 132.104599, -231.694382
1715797982.454368, 1.730110, 4.835090, -11.481095, 0.188742, -2.061931, 1.325388, 21.615967, 132.606750, -232.020370
1715797982.487701, 0.768539, 3.889081, -11.032032, -0.019125, -2.277810, 0.976586, 22.661148, 132.237778, -231.740723
1715797982.520063, 0.462530, 2.700959, -9.348310, 0.250137, -2.419652, 0.609104, 24.825958, 131.880234, -232.355698
1715797982.554368, 1.266682, 1.549946, -7.714716, 0.317711, -1.372565, -0.032733, 26.805771, 131.790054, -232.995728
1715797982.587702, 1.330129, 0.496348, -6.730699, 0.564353, -1.169150, -0.322035, 27.477356, 131.747375, -233.518875
1715797982.621034, 0.569670, 0.063446, -4.816535, 0.681233, -0.862505, -0.746602, 27.970047, 132.287170, -233.742279
1715797982.654448, 0.233435, -0.772130, -3.396923, 1.133598, -0.138273, -1.170541, 28.028488, 133.006866, -234.158371
1715797982.687705, -0.734421, -0.778116, -2.720711, 1.138888, -0.717280, -1.406301, 27.906479, 134.262314, -234.614426
1715797982.721028, -0.363919, -0.878672, -1.952621, 0.948262, -1.320173, -1.554965, 28.065613, 134.974487, -235.352737
1715797982.754339, -0.365565, -1.101033, -1.354220, 0.683746, -1.394444, -1.500908, 28.372116, 136.337845, -236.125595
1715797982.787770, -0.517896, -1.087566, -1.098041, 0.563856, -1.029807, -1.369936, 28.627426, 137.248108, -236.843674
1715797982.821041, -0.337134, -2.294543, -1.276858, 0.503639, -0.715653, -0.980961, 28.688782, 137.709106, -237.145538
1715797982.854345, -1.947234, -2.912546, -0.730680, 0.520930, -0.246819, -0.767210, 28.273651, 138.336655, -237.711960
1715797982.887708, -1.677587, -2.973449, 0.039355, 0.379205, 0.302849, -0.616927, 28.003632, 138.950073, -238.227539
1715797982.921026, -0.908600, -3.152715, 0.230592, 0.023147, 0.579669, 0.008467, 27.534027, 139.037216, -238.177078
1715797982.954344, -1.683573, -2.838027, -0.011821, -0.498986, 0.312094, 0.548107, 27.310455, 138.894806, -237.861099
1715797982.987706, -1.732953, -1.680730, -0.645237, -0.918050, -0.158215, 0.536296, 27.689667, 138.447845, -237.436661
1715797983.021026, -0.503082, -1.148020, -0.784400, -0.683350, 0.541749, 0.443565, 27.906067, 137.838593, -237.042221
1715797983.054376, 0.774524, -0.443975, -1.089811, -0.639827, 0.854370, 0.626430, 27.965668, 137.585663, -236.742462
1715797983.087709, 1.379210, -1.054347, -2.039710, -0.662255, 1.035309, 1.280009, 27.507614, 136.632507, -235.819931
1715797983.121049, 0.272340, -0.790386, -3.137003, -0.236317, 1.756024, 1.435828, 27.306076, 136.032974, -235.165924
1715797983.154346, -1.277606, 0.328006, -3.900304, -0.622542, 1.790810, 1.237802, 26.661987, 135.960999, -235.149185
1715797983.187710, -2.076222, -0.315137, -6.788460, -0.820167, 2.533671, 0.216690, 25.582260, 134.783447, -233.807068
1715797983.221128, -1.680730, 1.906832, -8.745121, -0.990211, 2.390193, -1.284334, 23.482742, 134.503952, -232.797409
1715797983.254396, 4.341286, 2.347664, -12.524368, -1.207898, 1.343658, -1.680689, 21.301407, 134.088791, -232.338486
1715797983.287710, 5.571158, 3.751564, -13.831004, -1.238063, 0.778215, -0.672974, 20.591644, 133.850723, -232.184174
1715797983.321029, 1.828272, 4.667646, -16.255432, -1.414616, 0.656110, -0.945642, 19.553101, 133.040146, -232.077774
1715797983.354407, 1.767370, 5.224896, -17.465103, -0.922412, 1.488048, -1.687136, 18.724609, 131.868759, -232.182297
1715797983.387709, 3.067870, 6.179135, -16.899024, -0.397069, 1.432415, -1.576943, 17.487366, 131.694992, -232.069534
1715797983.421029, 0.016161, 6.930166, -15.234754, -0.880522, 1.744076, -2.683517, 15.951843, 130.748795, -231.901093
1715797983.454452, 3.850176, 7.079804, -16.843358, -0.831437, 1.710283, -2.908111, 14.099396, 129.698120, -232.161835
1715797983.487728, 6.099827, 5.579088, -18.328362, -0.597092, -0.032134, -1.548770, 13.142929, 128.791122, -232.634796
1715797983.521092, 3.196110, 5.874473, -16.358832, -0.181362, -0.792019, -1.015605, 13.624908, 128.521286, -232.464386
1715797983.554434, 4.216339, 4.668394, -16.695816, -0.517834, 0.700356, -0.797999, 13.826584, 128.086731, -232.545273
1715797983.586903, 4.661062, 3.845537, -21.413740, 0.319053, 0.886319, -0.136169, 12.824890, 127.953415, -232.835617
1715797983.621034, 4.324826, 4.063559, -18.796129, 0.826669, -0.025609, 0.916547, 12.732483, 128.461212, -232.863403
1715797983.654388, 4.509329, 4.872350, -18.036569, 0.427374, 0.093815, 1.331477, 12.889282, 129.260971, -232.299271
1715797983.687688, 5.166388, 6.173299, -20.336499, 0.422124, 0.779267, 1.441881, 12.775040, 130.281326, -232.789032
1715797983.721018, 6.120328, 6.515670, -20.458004, 0.580977, -0.665514, 2.147028, 12.728226, 130.771805, -232.894348
1715797983.754419, 5.129427, 6.390124, -19.216162, 1.101992, -1.316862, 2.387484, 13.650452, 131.891113, -232.185410
1715797983.787688, 3.392733, 5.722890, -14.320618, 1.130040, -2.213172, 2.451320, 15.818085, 133.237076, -231.764008
1715797983.821057, 1.540070, 4.919935, -12.804340, 0.994384, -1.652728, 1.440538, 18.276688, 133.963760, -232.151123
1715797983.854470, 2.636315, 3.449596, -11.702259, 1.187592, -1.435098, 1.091989, 19.168518, 134.470032, -232.008545
1715797983.887781, 1.941249, 2.658761, -9.408464, 0.645196, -2.496225, 0.897995, 20.913956, 135.013962, -232.434525
1715797983.921120, -0.107141, 1.352574, -10.064326, 0.998405, -1.922016, -0.197578, 23.300156, 135.206268, -232.987732
1715797983.954388, 0.926556, 0.856825, -8.138789, 1.371901, -1.465726, -0.626979, 23.798340, 135.546570, -233.588669
1715797983.987722, 0.429909, 0.821510, -5.033210, 1.242451, -0.911030, -0.872931, 24.600250, 136.839844, -234.261993
1715797984.021128, -0.585532, -0.116418, -3.712659, 1.381773, -0.770232, -1.335292, 24.868912, 137.883453, -235.507614
1715797984.054387, 0.336984, -0.722600, -1.776947, 1.692178, -0.603267, -1.461303, 24.397141, 139.320511, -236.534805
1715797984.087790, 0.754323, -0.770634, -0.519242, 1.728803, -0.391334, -1.305645, 24.268265, 139.796066, -237.132339
1715797984.120825, 0.963666, -0.986860, 0.251541, 1.549201, -0.826751, -0.972035, 24.024353, 140.931717, -238.226822
1715797984.154468, 0.313940, -1.431134, 1.004517, 1.161436, -0.477207, -0.612720, 24.087906, 141.984695, -239.407364
1715797984.187771, -1.065420, -2.149544, 0.845602, 0.943260, -0.184124, -0.847035, 23.998444, 142.436279, -239.954285
1715797984.221160, 0.405518, -3.294122, 1.061080, 0.652536, -0.338856, -0.632957, 23.398209, 142.891968, -240.637756
1715797984.254353, 0.507122, -3.070863, 1.537975, 0.199225, -0.002170, -0.022883, 23.303009, 143.412354, -240.981949
1715797984.287724, -0.226252, -3.482067, 1.412729, -0.314348, 0.139460, 0.355597, 23.206894, 143.434357, -240.942627
1715797984.321036, -0.805350, -2.897583, 0.510264, -0.730356, 0.067933, 0.428042, 23.433289, 143.213562, -240.429993
1715797984.354440, -0.164003, -1.635240, -1.408239, -0.688484, -0.280405, 0.385282, 23.720306, 142.511658, -239.987534
1715797984.387733, 1.481113, -0.801010, -1.927183, -0.326183, 0.062436, 0.635426, 23.711594, 142.709488, -239.786972
1715797984.421062, 2.443732, -0.516699, -1.229722, -0.301333, 1.186308, 1.160923, 23.984131, 142.042770, -239.325897
1715797984.454385, 0.429011, -1.226131, -2.125901, -0.596228, 1.797916, 1.301043, 24.031830, 141.731018, -238.420685
1715797984.487755, -0.825102, -0.705691, -2.848501, -0.920926, 2.088656, 0.994602, 23.586349, 141.116791, -237.344070
1715797984.521049, -1.585111, -2.640356, -3.296516, -1.419966, 2.462956, 0.257514, 23.158920, 140.497330, -236.961884
1715797984.554394, -0.089034, -1.066766, -5.284452, -1.979196, 3.086209, -0.538101, 21.542999, 139.967407, -235.508621
1715797984.587727, 1.571195, -0.417938, -9.183709, -2.143718, 2.504117, -1.205722, 19.012527, 138.413467, -234.101974
1715797984.621067, 3.310882, 2.087295, -11.928362, -2.125054, 1.878847, -1.994486, 16.549606, 137.069122, -233.238983
1715797984.654398, 6.434716, 2.821567, -17.771860, -2.215552, -1.274331, -1.203861, 15.734573, 135.953217, -233.451248
1715797984.686904, 4.657470, 3.734506, -16.782456, -1.651899, -0.682454, -0.793366, 16.241898, 134.732178, -232.493164
1715797984.721051, 2.925116, 3.781941, -16.896929, -1.929114, -0.532101, -0.655886, 16.308197, 133.107864, -232.173950
1715797984.754419, 1.149815, 5.535694, -18.942774, -1.322938, 0.327876, -0.787189, 16.465012, 132.344040, -232.183334
1715797984.787728, 2.344971, 5.665429, -19.329587, -0.322720, -0.851866, -0.651629, 16.034882, 131.373550, -232.339783
1715797984.821070, 3.796306, 4.671836, -17.145327, -0.785082, -0.318586, -0.178781, 16.405167, 130.678207, -232.456451
1715797984.854423, 2.041655, 5.080197, -19.713856, -0.359002, 0.245024, -0.280744, 16.105347, 130.171097, -232.399597
1715797984.887854, 3.988141, 4.777929, -20.266917, -0.039787, 0.603525, -0.185148, 16.069672, 129.776550, -232.384079
1715797984.921033, 4.525939, 4.304775, -19.681535, 0.421999, 0.977360, 0.404381, 15.581985, 129.869904, -232.496124
1715797984.954449, 3.805135, 4.487033, -17.790864, 0.160532, 0.349969, 0.923992, 15.067230, 130.318634, -232.653107
1715797984.987231, 3.607463, 5.717054, -19.761292, 0.204443, -0.287385, 1.484451, 15.608459, 130.434891, -232.808945
1715797985.021096, 3.004573, 6.422446, -20.045453, 0.403413, 0.654378, 1.389950, 16.093170, 131.108856, -232.270630
1715797985.054433, 3.658939, 6.160281, -20.616470, 0.782927, 0.097378, 1.799596, 15.952148, 132.068329, -232.303986
1715797985.087735, 2.065448, 5.148581, -16.772580, 0.999274, -1.057814, 1.867175, 16.404282, 132.971085, -232.142120
1715797985.121065, 1.252317, 4.098125, -15.024064, 0.530191, -0.809064, 1.342046, 17.832535, 133.303940, -232.133087
1715797985.154481, 1.018583, 2.921525, -15.711499, 0.901851, -1.408109, 1.111055, 18.960312, 133.936996, -231.994003
1715797985.187742, 1.252018, 1.820192, -12.280309, 0.691666, -2.513734, 0.912014, 20.063263, 134.314453, -232.247925
1715797985.221166, -0.647482, 1.036839, -11.936442, 1.052412, -2.614943, -0.145013, 22.667862, 134.576355, -232.628784
1715797985.254461, -0.153827, 0.578349, -8.910321, 0.982619, -1.483482, -1.226055, 24.072250, 135.344147, -233.404449
1715797985.287702, 2.618957, 0.563535, -7.421876, 1.043946, -1.799354, -1.226198, 24.503815, 136.080154, -234.276581
1715797985.321069, 2.303970, 0.674417, -4.493917, 0.144769, -1.685361, -1.176437, 25.060730, 136.355484, -234.718002
1715797985.354518, 0.447865, 0.517297, -6.383839, 0.685479, -1.212397, -1.431227, 25.843231, 136.988571, -234.907074
1715797985.387831, 0.679654, 0.168791, -4.928614, 1.462804, -0.653317, -1.770701, 25.442169, 138.024384, -236.107422
1715797985.421058, 1.296909, -0.279373, -1.984344, 1.515375, -0.396698, -1.345464, 25.519943, 139.099060, -236.733795
1715797985.453735, 0.158317, -0.817620, -1.334618, 1.284725, -0.909807, -1.209355, 25.176987, 140.097183, -237.564087
1715797985.487826, 0.700454, -1.159991, -0.813131, 1.030652, -1.024370, -0.853994, 24.850723, 141.145340, -238.841095
1715797985.521209, -0.429759, -2.043601, -0.661997, 1.106229, -0.239343, -0.596941, 24.714859, 141.752426, -239.801346
1715797985.554407, -0.597653, -2.957737, -0.150984, 1.261346, 0.051800, -0.670320, 24.914276, 142.132004, -240.060638
1715797985.587794, 0.414795, -2.595165, 0.925060, 0.847751, -0.127415, -0.345963, 24.430252, 142.916229, -241.060455
1715797985.621075, 0.474950, -3.438373, 0.473004, 0.474432, -1.155128, 0.070679, 24.602936, 143.416779, -241.577118
1715797985.654408, 1.759140, -3.417573, 1.383250, -0.076368, -1.788187, 0.847906, 24.994720, 143.171478, -242.158554
1715797985.687789, 1.326986, -2.372055, 1.344045, -0.226293, -0.243030, 1.075489, 26.276505, 142.650055, -242.396332
1715797985.721051, -0.034267, -2.270900, 1.167622, -0.384502, 0.543043, 1.116339, 27.158646, 142.320831, -242.149597
1715797985.754411, -0.324414, -1.027861, 1.119888, -1.197426, 1.011728, 1.326428, 27.179077, 141.943466, -241.871567
1715797985.787775, -1.151761, -1.284489, 0.118962, -1.677726, 1.679935, 1.272886, 27.510605, 141.133209, -240.715988
1715797985.821114, -1.042376, -1.321899, -2.259677, -1.600576, 1.770218, 1.345187, 27.310379, 139.785294, -238.651810
1715797985.854398, -2.408118, -0.847996, -3.545962, -1.550276, 1.737489, 1.052164, 26.822601, 138.571320, -237.275314
1715797985.887506, -2.501791, -1.096095, -6.171953, -1.414138, 1.407395, 0.578194, 26.371460, 138.210876, -236.453873
1715797985.920811, -3.002479, 1.315015, -8.427440, -1.349541, 1.277901, 0.069389, 25.465179, 137.264923, -235.315201
1715797985.954061, -1.187973, 2.840122, -11.885266, -1.349153, 2.010495, -1.024526, 23.880737, 136.473724, -233.863907
1715797985.987811, 1.991228, 3.484761, -16.245406, -1.484278, 1.005730, -0.999024, 22.826096, 136.033463, -233.768356
1715797986.021158, 0.680402, 2.368165, -19.127127, -0.678877, -0.073792, -0.813819, 21.743851, 135.487213, -233.431030
1715797986.054441, -0.825700, 1.555333, -19.256414, -0.298736, 0.523455, -1.030174, 20.972519, 135.372131, -233.281143
1715797986.087750, -0.581492, 2.704849, -19.658191, 0.327403, -0.275758, -0.718563, 20.580505, 135.436676, -233.695724
1715797986.121083, -2.994248, 1.611747, -16.683545, -0.351895, 1.254581, -1.588000, 20.049622, 135.278442, -233.850082
1715797986.154509, 0.553509, 0.902165, -18.857032, 0.103059, 1.296121, -1.919168, 18.527679, 135.226425, -233.848175
1715797986.187749, 2.740762, 0.215628, -18.004097, 1.195016, 0.871302, -0.808177, 16.991257, 135.582855, -234.038574
1715797986.221137, 1.344045, 0.219967, -15.144523, 1.433372, -1.468294, -0.116556, 16.834030, 136.137894, -234.565628
1715797986.254459, 0.884508, 0.185700, -9.689933, 0.423529, -1.134250, -0.160883, 18.016663, 136.626190, -235.169281
1715797986.287753, 0.446818, 0.585233, -10.891223, -0.966478, 0.844326, -0.534164, 17.496552, 136.568207, -234.893738
1715797986.321071, 0.819266, 0.607978, -15.526248, -0.585664, 0.392095, -0.292595, 17.167664, 136.218552, -234.659241
1715797986.354527, 1.288679, 0.526275, -16.206650, 0.481983, -0.217281, 0.139544, 17.248199, 135.924057, -234.561813
1715797986.387763, 0.281319, 0.228197, -12.125584, 0.430064, -0.353772, -0.091345, 17.424393, 136.460083, -235.125854
1715797986.421086, 0.661697, 0.309600, -11.995100, 0.338592, -0.150658, 0.050763, 17.585236, 136.808441, -235.060135
1715797986.454471, -0.617854, -0.565331, -11.445780, 0.353458, -0.021404, 0.069598, 17.397537, 137.096817, -235.367859
1715797986.487717, 0.037110, -0.996586, -11.377994, 0.681581, 0.059342, 0.105317, 17.890244, 137.369324, -235.635895
1715797986.521098, 0.260968, -0.943764, -9.541791, 0.690452, -0.167787, 0.177365, 18.036057, 138.100769, -236.002106
1715797986.554510, 0.135871, -1.381305, -8.131607, 0.156808, -0.266994, 0.116520, 17.975784, 138.089798, -236.452820
1715797986.587757, -0.525228, -1.574936, -8.187571, -0.341496, 0.060589, -0.145151, 18.227524, 138.306885, -236.049011
1715797986.621093, -0.223858, -0.448464, -8.086566, -0.651012, 0.447849, -0.291410, 17.747742, 137.817261, -235.745361
1715797986.654395, -1.133056, -0.928651, -12.329540, 0.559131, -1.712114, -0.511277, 17.666626, 137.598999, -235.644028
1715797986.687759, -0.075567, -0.432602, -9.052776, 0.174961, -1.281151, -0.127762, 18.230194, 138.055359, -235.879379
1715797986.721098, -1.196353, -1.073799, -8.935011, 0.055232, 0.263850, -0.376606, 18.622269, 138.107483, -235.893723
1715797986.754372, -1.024120, -1.270723, -8.942942, -0.154737, 0.908633, -0.398620, 18.260635, 138.252777, -236.202240
1715797986.787742, -0.664840, -1.268927, -10.229227, -0.373778, 1.186484, -0.143861, 17.851273, 138.158447, -235.786942
1715797986.821042, 0.443825, -1.660828, -11.083508, 0.168742, -0.204275, -0.062809, 17.304291, 137.722061, -235.660797
1715797986.854430, -0.193631, -1.075894, -9.756521, 0.305377, -0.168264, 0.050922, 17.371460, 137.864563, -235.850632
1715797986.887859, -0.524031, -1.192761, -9.257630, 0.151005, 0.036755, 0.061002, 17.346115, 138.361847, -235.831116
1715797986.921096, 0.354043, -1.083825, -9.870845, 0.188311, -0.222593, 0.082724, 17.436279, 138.267075, -236.160828
1715797986.954427, -0.148590, -1.120037, -9.591022, 0.144619, -0.109518, 0.051907, 17.593948, 138.564926, -236.139130
1715797986.987843, -0.136918, -0.963068, -9.739612, 0.122268, 0.057287, -0.001355, 17.472839, 138.495865, -236.098633
1715797987.021177, -0.043545, -1.290026, -9.974693, 0.137977, 0.039520, -0.036739, 17.502121, 138.414093, -236.252792
1715797987.054438, -0.221763, -1.260098, -9.786150, 0.176663, -0.042214, -0.028436, 17.596695, 138.818069, -236.216858
1715797987.087735, -0.066140, -1.331775, -9.599701, 0.123387, -0.008091, 0.017811, 17.519775, 138.940109, -236.538651
1715797987.121104, -0.303465, -1.194856, -9.675567, 0.095352, 0.101151, 0.065845, 17.768814, 138.978394, -236.484741
1715797987.154425, -0.379331, -1.312023, -9.643395, 0.307301, 0.016861, 0.048927, 17.490112, 138.936081, -236.419571
1715797987.187755, 0.083199, -1.513285, -9.695170, 0.081403, 0.074445, 0.074779, 17.482330, 139.261093, -236.339539
1715797987.221131, -0.391302, -1.482759, -10.155755, -0.011847, 0.251292, 0.065954, 17.557892, 138.940567, -236.358643